Folder: ethz/polyN_optimization/AA7020-T6_results/DATA

Note: README.md
**MODELLING AND CALIBRATING A POLYN YIELD SURFACE FUNCTION**

---

In the context of my research assistant internship at ETH Zurich, I have to implement and find an operationnal strategy to calibrate a yield surface function based on the polyN model which is a homogenous polynomial of degree N.

To make the calibration operationnal please copy paste a folder "{material}_results" containing the csv files for a given material in the lab_data directory and then change the parameters you want in the polyN_optimization/param.txt. Then run polyN_optimization/optimize_polyN.py. The coefficients of the polyN function will be accessible in the polyN_coeff.npy file.

File: NT6_90_1.csv
Time[s],Displacement[mm],Force[kN],AxStrain_1,AxStrain_2,Thickness[mm],OuterWidth[mm],InnerWidth[mm]
0.54,0,-0.010912,0,0,1.0239,19.697,9.9486
2.54,0.001626,0.0095768,0.00013499,0,0,0,0
4.54,0.003173,0.084432,0.00010099,0,0,0,0
6.54,0.0048,0.14786,7.2997e-05,0,0,0,0
8.54,0.006282,0.20172,8.8996e-05,0,0,0,0
10.54,0.0082,0.25758,0.00023797,0,0,0,0
12.54,0.010283,0.31015,0.00021098,0,0,0,0
14.54,0.01123,0.36286,0.00047389,0,0,0,0
16.54,0.012229,0.41786,0.00066678,0,0,0,0
18.54,0.012791,0.46857,0.00039892,0,0,0,0
20.54,0.014405,0.52172,0.00047389,0,0,0,0
22.54,0.017345,0.57586,0.00059582,0,0,0,0
24.54,0.0183,0.62858,0.0006398,0,0,0,0
26.54,0.01923,0.682,0.00073373,0,0,0,0
28.54,0.019484,0.73672,0.00059882,0,0,0,0
30.54,0.021176,0.79086,0.0007717,0,0,0,0
32.54,0.023497,0.844,0.00093057,0,0,0,0
34.55,0.025551,0.89871,0.0010754,0,0,0,0
36.54,0.026736,0.95343,0.0011563,0,0,0,0
38.54,0.028008,1.0054,0.0010624,0,0,0,0
40.54,0.029483,1.0601,0.00081567,0,0,0,0
42.54,0.031121,1.1143,0.0010624,0,0,0,0
44.54,0.0326,1.1674,0.0012652,0,0,0,0
46.54,0.034166,1.2201,0.0016397,0,0,0,0
48.54,0.035875,1.2744,0.0012213,0,0,0,0
50.54,0.037368,1.3291,0.0012712,0,0,0,0
52.54,0.038769,1.3814,0.0015248,0,0,0,0
54.54,0.040061,1.4354,0.0016297,0,0,0,0
56.54,0.041097,1.4881,0.0021766,0,0,0,0
58.54,0.043174,1.5421,0.0017884,0,0,0,0
60.54,0.04559,1.5953,0.0016297,0,0,0,0
62.54,0.04712,1.6484,0.0015658,0,0,0,0
64.54,0.048111,1.7004,0.0018024,0,0,0,0
66.54,0.049025,1.7541,0.0021297,0,0,0,0
68.54,0.050331,1.8071,0.0020858,0,0,0,0
70.54,0.05272,1.8584,0.002011,0,0,0,0
72.54,0.054764,1.9114,0.0016496,0,0,0,0
74.54,0.055915,1.9634,0.0017375,0,0,0,0
76.54,0.056781,2.0171,0.0023283,0,0,0,0
78.54,0.058179,2.0686,0.0024869,0,0,0,0
80.54,0.060297,2.1197,0.0021667,0,0,0,0
82.54,0.062389,2.1704,0.0021527,0,0,0,0
84.54,0.06382,2.2211,0.0020449,0,0,0,0
86.54,0.064595,2.2724,0.0022614,0,0,0,0
88.54,0.066142,2.3224,0.0027572,0,0,0,0
90.54,0.06759,2.3741,0.0025916,0,0,0,0
92.54,0.069414,2.4241,0.0025448,0,0,0,0
94.54,0.071167,2.4751,0.0025318,0,0,0,0
96.54,0.072859,2.5256,0.002832,0,0,0,0
98.54,0.075471,2.5764,0.0031251,0,0,0,0
100.54,0.076486,2.6264,0.0031251,0,0,0,0
102.54,0.077129,2.6771,0.0028988,0,0,0,0
104.54,0.079163,2.7277,0.0028489,0,0,0,0
106.54,0.081724,2.7764,0.0030573,0,0,0,0
108.54,0.085139,2.8257,0.0034221,0,0,0,0
110.54,0.087139,2.8741,0.0037828,0,0,0,0
112.54,0.088881,2.9224,0.0035467,0,0,0,0
114.54,0.0906,2.9696,0.0036145,0,0,0,0
116.54,0.093399,3.015,0.003749,0,0,0,0
118.54,0.096475,3.0601,0.0043555,0,0,0,0
120.54,0.099835,3.1044,0.0052313,0,0,0,0
122.54,0.10329,3.1471,0.0051636,0,0,0,0
124.54,0.10734,3.1876,0.0050632,0,0,0,0
126.54,0.111,3.2276,0.0054332,0,0,0,0
128.54,0.11529,3.265,0.0060049,0,0,0,0
130.54,0.11932,3.3021,0.0075514,0,0,0,0
132.54,0.12443,3.3379,0.0078531,0,0,0,0
134.54,0.12984,3.3741,0.0077866,0,0,0,0
136.54,0.13549,3.4067,0.0080545,0,0,0,0
138.54,0.14135,3.4394,0.0091619,0,0,0,0
140.54,0.14767,3.4714,0.010603,0,0,0,0
142.54,0.15343,3.5016,0.011573,0,0,0,0
144.54,0.15914,3.5329,0.011674,0,0,0,0
146.54,0.16605,3.5616,0.011841,0,0,0,0
148.54,0.17308,3.5894,0.012743,0,0,0,0
150.54,0.17935,3.6164,0.014279,0,0,0,0
152.54,0.18621,3.6439,0.015712,0,0,0,0
154.54,0.1942,3.6687,0.016078,0,0,0,0
156.54,0.20175,3.6949,0.016046,0,0,0,0
158.54,0.20868,3.7194,0.017143,0,0,0,0
160.54,0.21728,3.7441,0.018539,0,0,0,0
162.54,0.2255,3.7681,0.019602,0,0,0,0
164.54,0.23294,3.7909,0.020299,0,0,0,0
166.54,0.24093,3.8137,0.020596,0,0,0,0
168.54,0.24976,3.8364,0.021591,0,0,0,0
170.54,0.25738,3.8587,0.022716,0,0,0,0
172.54,0.26533,3.879,0.023873,0,0,0,0
174.54,0.27416,3.9011,0.024567,0,0,0,0
176.54,0.28262,3.922,0.02526,0,0,0,0
178.54,0.29138,3.9424,0.026283,0,0,0,0
180.54,0.30092,3.9624,0.027402,0,0,0,0
182.54,0.30928,3.9821,0.028192,0,0,0,0
184.54,0.31828,4.0014,0.028948,0,0,0,0
186.54,0.32793,4.0204,0.029868,0,0,0,0
188.54,0.33679,4.0397,0.030919,0,0,0,0
190.54,0.34542,4.0577,0.031706,0,0,0,0
192.54,0.35567,4.0761,0.032492,0,0,0,0
194.54,0.36393,4.0937,0.033442,0,0,0,0
196.54,0.37354,4.1107,0.034162,0,0,0,0
198.54,0.38322,4.1284,0.03524,0,0,0,0
200.54,0.39215,4.1454,0.036285,0,0,0,0
202.54,0.40122,4.1627,0.037067,0,0,0,0
204.54,0.41127,4.1787,0.038176,0,0,0,0
206.54,0.42088,4.1957,0.039022,0,0,0,0
208.54,0.42978,4.211,0.039966,0,0,0,0
210.54,0.44006,4.2274,0.040842,0,0,0,0
212.54,0.44964,4.2439,0.041654,0,0,0,0
214.54,0.45888,4.259,0.042952,0,0,0,0
216.54,0.46876,4.2741,0.043795,0,0,0,0
218.54,0.47895,4.2894,0.044572,0,0,0,0
220.54,0.48913,4.304,0.045446,0,0,0,0
222.54,0.5004,4.319,0.046705,0,0,0,0
224.54,0.51011,4.3344,0.047706,0,0,0,0
226.54,0.52053,4.3477,0.048963,0,0,0,0
228.54,0.53092,4.3621,0.049736,0,0,0,0
230.54,0.54077,4.3761,0.050348,0,0,0,0
232.54,0.55139,4.3897,0.051345,0,0,0,0
234.54,0.56181,4.4034,0.052534,0,0,0,0
236.54,0.57207,4.417,0.053881,0,0,0,0
238.54,0.58222,4.431,0.054682,0,0,0,0
240.54,0.5922,4.4434,0.055387,0,0,0,0
242.54,0.60299,4.4557,0.056379,0,0,0,0
244.54,0.61298,4.469,0.057689,0,0,0,0
246.54,0.62336,4.4816,0.058711,0,0,0,0
248.54,0.63335,4.4943,0.059604,0,0,0,0
250.54,0.64465,4.506,0.060369,0,0,0,0
252.54,0.65534,4.5183,0.061388,0,0,0,0
254.54,0.6661,4.53,0.062755,0,0,0,0
256.54,0.67663,4.5426,0.06393,0,0,0,0
258.54,0.68783,4.553,0.064914,0,0,0,0
260.54,0.69835,4.5647,0.065834,0,0,0,0
262.54,0.70891,4.576,0.066783,0,0,0,0
264.54,0.71879,4.5876,0.06827,0,0,0,0
266.54,0.73056,4.5983,0.069534,0,0,0,0
268.54,0.74119,4.609,0.070386,0,0,0,0
270.54,0.75246,4.6197,0.071331,0,0,0,0
272.54,0.76413,4.6304,0.072496,0,0,0,0
274.54,0.77438,4.6407,0.07388,0,0,0,0
276.54,0.78538,4.6507,0.075199,0,0,0,0
278.54,0.79672,4.661,0.075952,0,0,0,0
280.54,0.80788,4.6717,0.077175,0,0,0,0
282.54,0.81881,4.6813,0.078552,0,0,0,0
284.54,0.83039,4.6904,0.079802,0,0,0,0
286.54,0.84132,4.6997,0.081083,0,0,0,0
288.54,0.85252,4.7097,0.082361,0,0,0,0
290.54,0.86439,4.719,0.083452,0,0,0,0
292.54,0.87505,4.7287,0.084727,0,0,0,0
294.54,0.88672,4.737,0.086249,0,0,0,0
296.54,0.89793,4.746,0.087491,0,0,0,0
298.54,0.90997,4.755,0.088699,0,0,0,0
300.54,0.9211,4.7636,0.090339,0,0,0,0
302.54,0.9322,4.7716,0.091605,0,0,0,0
304.54,0.94286,4.7799,0.092871,0,0,0,0
306.54,0.95542,4.7887,0.093949,0,0,0,0
308.54,0.96638,4.7964,0.095365,0,0,0,0
310.54,0.97775,4.804,0.097086,0,0,0,0
312.54,0.98892,4.812,0.098589,0,0,0,0
314.54,0.99961,4.8197,0.10006,0,0,0,0
316.54,1.0129,4.8277,0.10119,0,0,0,0
318.54,1.0242,4.835,0.10281,0,0,0,0
320.54,1.0352,4.8417,0.10421,0,0,0,0
322.54,1.0473,4.849,0.10595,0,0,0,0
324.54,1.0591,4.8567,0.10729,0,0,0,0
326.54,1.07,4.8626,0.10875,0,0,0,0
328.54,1.0826,4.8693,0.11023,0,0,0,0
330.54,1.0938,4.876,0.11205,0,0,0,0
332.54,1.1051,4.8823,0.11347,0,0,0,0
334.54,1.1167,4.889,0.11531,0,0,0,0
336.54,1.1294,4.8953,0.11706,0,0,0,0
338.54,1.1421,4.9013,0.11868,0,0,0,0
340.54,1.154,4.9077,0.12042,0,0,0,0
342.54,1.1658,4.913,0.12216,0,0,0,0
344.54,1.1779,4.9184,0.1239,0,0,0,0
346.54,1.1898,4.924,0.12593,0,0,0,0
348.54,1.2017,4.929,0.12766,0,0,0,0
350.54,1.2142,4.9347,0.12938,0,0,0,0
352.54,1.2257,4.9396,0.13132,0,0,0,0
354.54,1.2382,4.944,0.13354,0,0,0,0
356.54,1.2506,4.949,0.13573,0,0,0,0
358.54,1.2623,4.954,0.13753,0,0,0,0
360.54,1.274,4.958,0.13953,0,0,0,0
362.54,1.2874,4.962,0.14179,0,0,0,0
364.54,1.299,4.9667,0.14432,0,0,0,0
366.54,1.3126,4.97,0.14689,0,0,0,0
368.54,1.324,4.9743,0.14896,0,0,0,0
370.54,1.337,4.9773,0.15153,0,0,0,0
372.54,1.3497,4.98,0.15414,0,0,0,0
374.54,1.3618,4.984,0.15675,0,0,0,0
376.54,1.3748,4.9867,0.15932,0,0,0,0
378.54,1.3869,4.9893,0.16151,0,0,0,0
380.54,1.3997,4.992,0.16436,0,0,0,0
382.54,1.4129,4.9943,0.16737,0,0,0,0
384.54,1.4247,4.9963,0.17051,0,0,0,0
386.54,1.4376,4.998,0.17324,0,0,0,0
388.54,1.4506,4.9993,0.1764,0,0,0,0
390.54,1.4634,5,0.17988,0,0,0,0
392.54,1.4765,5.001,0.18355,0,0,0,0
394.54,1.4888,5.0014,0.18723,0,0,0,0
396.54,1.5026,5.0017,0.19087,0,0,0,0
398.54,1.5152,5.001,0.19473,0,0,0,0
400.54,1.5279,5,0.1989,0,0,0,0
402.54,1.5418,4.9983,0.20385,0,0,0,0
404.54,1.5543,4.996,0.20787,0,0,0,0
406.54,1.568,4.993,0.21218,0,0,0,0
408.54,1.5815,4.9893,0.21714,0,0,0,0
410.54,1.5942,4.9847,0.22255,0,0,0,0
412.54,1.6093,4.9787,0.22862,0,0,0,0
414.54,1.6232,4.97,0.23458,0,0,0,0
416.54,1.6381,4.9607,0.24109,0,0,0,0
418.54,1.6512,4.9481,0.24835,0,0,0,0
420.54,1.6664,4.9331,0.25672,0,0,0,0
422.54,1.6825,4.9131,0.26587,0,0,0,0
424.54,1.698,4.8867,0.27478,0,0,0,0

File: SL_60_NT20_90_1.csv
Time[s];Displacement[mm];Force[kN];AxStrain_1;AxStrain_2;Thickness[mm];OuterWidth[mm];InnerWidth[mm]
0;0;-0.006;0;0;1.021;20;10
1.9764;0.001787262;0;0.000740797;0;0;0;0
3.9761;-0.000264806;-0.0063;0.000264251;0;0;0;0
5.9761;0.00169564;0.0168;0.000603389;0;0;0;0
7.9761;0.004089307;0.1814;0.000198195;0;0;0;0
9.9762;0.0154209;0.3815;0.000837149;0;0;0;0
11.9759;0.0182677;0.5619;0.000801464;0;0;0;0
13.9761;0.0316125;0.7736;0.000510584;0;0;0;0
15.9761;0.0313087;0.9484;0.002078196;0;0;0;0
17.9758;0.0375751;1.138;0.001020907;0;0;0;0
19.9758;0.0465777;1.3469;0.00144895;0;0;0;0
21.9758;0.0516742;1.5315;0.002568128;0;0;0;0
23.976;0.0606448;1.7103;0.001340173;0;0;0;0
25.9757;0.060423;1.9148;0.002847727;0;0;0;0
27.9756;0.071738;2.1003;0.002334772;0;0;0;0
29.9758;0.072835;2.2612;0.002263508;0;0;0;0
31.9756;0.0860783;2.4464;0.004848939;0;0;0;0
33.9757;0.0884554;2.6113;0.00275513;0;0;0;0
35.9755;0.09351951;2.7598;0.005376592;0;0;0;0
37.9755;0.105445;2.8825;0.004877372;0;0;0;0
39.9756;0.110444;2.9646;0.004895142;0;0;0;0
41.9756;0.124758;3.0452;0.008871248;0;0;0;0
43.9755;0.139299;3.1151;0.007672278;0;0;0;0
45.9755;0.143717;3.1729;0.0110989;0;0;0;0
47.9755;0.157164;3.1934;0.0120503;0;0;0;0
49.9754;0.172427;3.2788;0.0123978;0;0;0;0
51.9754;0.185612;3.3296;0.0152369;0;0;0;0
53.9753;0.19429;3.3552;0.0152387;0;0;0;0
55.9753;0.209334;3.3777;0.0172855;0;0;0;0
57.975;0.221456;3.4396;0.0176048;0;0;0;0
59.975;0.228413;3.4355;0.01964155;0;0;0;0
61.9749;0.239268;3.5164;0.0203399;0;0;0;0
63.9752;0.255404;3.5287;0.0210763;0;0;0;0
65.9751;0.264989;3.5218;0.0232281;0;0;0;0
67.9748;0.274591;3.5676;0.0238613;0;0;0;0
69.9748;0.287977;3.5973;0.0253109;0;0;0;0
71.9747;0.303705;3.6526;0.0265741;0;0;0;0
73.9749;0.312739;3.6627;0.0267376;0;0;0;0
75.9747;0.322798;3.6703;0.028367;0;0;0;0
77.9749;0.337803;3.6893;0.0292484;0;0;0;0
79.9748;0.353746;3.7149;0.0308201;0;0;0;0
81.9748;0.368393;3.7389;0.0320972;0;0;0;0
83.9747;0.375085;3.7765;0.0336057;0;0;0;0
85.9744;0.390769;3.7866;0.0336109;0;0;0;0
87.9746;0.403896;3.8062;0.0349051;0;0;0;0
89.9746;0.42208;3.8388;0.0360254;0;0;0;0
91.9746;0.428524;3.829;0.0368209;0;0;0;0
93.9743;0.44021;3.8571;0.037657;0;0;0;0
95.9743;0.455376;3.8723;0.0381728;0;0;0;0
97.9742;0.473826;3.882;0.0396276;0;0;0;0
99.9744;0.47818;3.9295;0.0404957;0;0;0;0
101.9744;0.494129;3.9276;0.0417501;0;0;0;0
103.9741;0.509627;3.9513;0.0430321;0;0;0;0
105.9743;0.51646;3.9418;0.0436357;0;0;0;0
107.9742;0.532037;3.9727;0.0453335;0;0;0;0
109.9742;0.546026;3.9892;0.0462205;0;0;0;0
111.9739;0.558326;4.029;0.046904;0;0;0;0
113.9741;0.569556;4.0097;0.0478748;0;0;0;0
115.9738;0.584347;4.035;0.0492305;0;0;0;0
117.9738;0.598427;4.06;0.05072197;0;0;0;0
119.9738;0.61736;4.0565;0.05193996;0;0;0;0
121.974;0.622107;4.0856;0.0519806;0;0;0;0
123.9739;0.635241;4.0957;0.0531514;0;0;0;0
125.9736;0.650847;4.0938;0.0551154;0;0;0;0
127.9738;0.665858;4.0903;0.0557708;0;0;0;0
129.9738;0.671943;4.1421;0.0567297;0;0;0;0
131.9737;0.686314;4.1377;0.0575746;0;0;0;0
133.9737;0.703056;4.1475;0.0595164;0;0;0;0
135.9737;0.717716;4.15;0.0599589;0;0;0;0
137.9734;0.730038;4.1722;0.0615351;0;0;0;0
139.9736;0.742373;4.1984;0.0624079;0;0;0;0
141.9735;0.755346;4.199;0.0635296;0;0;0;0
143.9736;0.771407;4.2398;0.0646685;0;0;0;0
145.9734;0.783469;4.2385;0.0653462;0;0;0;0
147.9732;0.792546;4.236;0.0666886;0;0;0;0
149.9734;0.807882;4.2527;0.0683026;0;0;0;0
151.9734;0.818159;4.2629;0.0689779;0;0;0;0
153.9731;0.834802;4.279;0.0697759;0;0;0;0
155.9732;0.845679;4.2704;0.0717823;0;0;0;0
157.973;0.860984;4.2768;0.0730496;0;0;0;0
159.9732;0.869097;4.3084;0.0740385;0;0;0;0
161.9731;0.880365;4.2973;0.0754602;0;0;0;0
163.9729;0.89419;4.3273;0.0759652;0;0;0;0
165.9731;0.906211;4.3194;0.0770735;0;0;0;0
167.9728;0.922957;4.3504;0.0790076;0;0;0;0
169.973;0.93598;4.3494;0.0806035;0;0;0;0
171.9727;0.944175;4.364;0.0811684;0;0;0;0
173.9729;0.962699;4.3444;0.0828087;0;0;0;0
175.9726;0.975469;4.3662;0.0839997;0;0;0;0
177.9726;0.987786;4.3921;0.0849482;0;0;0;0
179.9728;1.00396;4.4013;0.0862596;0;0;0;0
181.9725;1.01441;4.3823;0.0872747;0;0;0;0
183.9727;1.02617;4.4117;0.0885144;0;0;0;0
185.9724;1.04346;4.4066;0.0891141;0;0;0;0
187.9726;1.04937;4.4294;0.09127119;0;0;0;0
189.9726;1.06519;4.4316;0.0921086;0;0;0;0
191.9725;1.07877;4.43;0.0940253;0;0;0;0
193.9722;1.09554;4.4288;0.09440555;0;0;0;0
195.9724;1.10923;4.4717;0.0966388;0;0;0;0
197.9724;1.11846;4.4487;0.0982248;0;0;0;0
199.9722;1.1335;4.4465;0.0989982;0;0;0;0
201.9723;1.1474;4.4825;0.100501;0;0;0;0
203.9723;1.16265;4.4942;0.101934;0;0;0;0
205.972;1.17081;4.4926;0.103549;0;0;0;0
207.9722;1.1847;4.4762;0.104764;0;0;0;0
209.9719;1.19937;4.5062;0.106377;0;0;0;0
211.9721;1.21281;4.4954;0.107271;0;0;0;0
213.9721;1.22243;4.4986;0.109618;0;0;0;0
215.9718;1.23793;4.5147;0.110678;0;0;0;0
217.9717;1.25318;4.4989;0.112103;0;0;0;0
219.972;1.26809;4.5141;0.113335;0;0;0;0
221.9717;1.27452;4.5239;0.114971;0;0;0;0
223.9719;1.29146;4.5346;0.116911;0;0;0;0
225.9716;1.30557;4.5653;0.118299;0;0;0;0
227.9716;1.3206;4.5637;0.119985;0;0;0;0
229.9715;1.32845;4.5318;0.12109;0;0;0;0
231.9715;1.34223;4.5596;0.122635;0;0;0;0
233.9718;1.35861;4.5681;0.125156;0;0;0;0
235.9716;1.37425;4.5675;0.125665;0;0;0;0
237.9713;1.38435;4.5577;0.128594;0;0;0;0
239.9716;1.39587;4.5792;0.129597;0;0;0;0
241.9713;1.41219;4.5944;0.131295;0;0;0;0
243.9712;1.426;4.5593;0.134078;0;0;0;0
245.9712;1.43538;4.5982;0.135879;0;0;0;0
247.9714;1.44828;4.5798;0.137369;0;0;0;0
249.9714;1.4629;4.6026;0.139078;0;0;0;0
251.9711;1.47882;4.5915;0.140577;0;0;0;0
253.9713;1.49408;4.6086;0.142744;0;0;0;0
255.971;1.50177;4.6184;0.145485;0;0;0;0
257.9712;1.51732;4.6256;0.147111;0;0;0;0
259.9709;1.53161;4.6399;0.149412;0;0;0;0
261.9711;1.54382;4.6019;0.150943;0;0;0;0
263.9711;1.5511;4.6415;0.152825;0;0;0;0
265.9708;1.56906;4.625;0.154816;0;0;0;0
267.971;1.58288;4.6241;0.157103;0;0;0;0
269.9709;1.5996;4.625;0.160202;0;0;0;0
271.9706;1.60796;4.6234;0.16231;0;0;0;0
273.9709;1.62383;4.6462;0.164782;0;0;0;0
275.9708;1.63783;4.6396;0.16822;0;0;0;0
277.9706;1.65324;4.6487;0.16997;0;0;0;0
279.9708;1.66057;4.6342;0.173023;0;0;0;0
281.9704;1.6741;4.65;0.174838;0;0;0;0
283.9707;1.684;4.6702;0.176497;0;0;0;0
285.9704;1.70528;4.6731;0.179105;0;0;0;0
287.9706;1.70494;4.6718;0.181095;0;0;0;0
289.9703;1.72892;4.6566;0.183492;0;0;0;0
291.9705;1.73754;4.6408;0.185651;0;0;0;0
293.9704;1.7588;4.6803;0.187573;0;0;0;0
295.9704;1.76828;4.6519;0.190808;0;0;0;0
297.9704;1.7815;4.644;0.192842;0;0;0;0
299.9703;1.7946;4.6471;0.195752;0;0;0;0
301.97;1.80644;4.6677;0.197084;0;0;0;0
303.9702;1.82328;4.6102;0.201167;0;0;0;0
305.9699;1.83414;4.6452;0.204725;0;0;0;0
307.9699;1.84449;4.6718;0.209521;0;0;0;0
309.9701;1.86294;4.6648;0.213203;0;0;0;0
311.9701;1.87099;4.6332;0.216456;0;0;0;0
313.9701;1.88626;4.686;0.22045;0;0;0;0
315.97;1.90307;4.667;0.225451;0;0;0;0
317.9697;1.91953;4.6392;0.229394;0;0;0;0
319.9699;1.93079;4.6402;0.233623;0;0;0;0
321.9699;1.94042;4.6415;0.236996;0;0;0;0
323.9696;1.95767;4.6452;0.240654;0;0;0;0
325.9698;1.97021;4.662;0.247334;0;0;0;0
327.9698;1.9814;4.6535;0.252136;0;0;0;0
329.9697;1.99317;4.6433;0.257475;0;0;0;0
331.9694;2.01037;4.6452;0.264324;0;0;0;0
333.9694;2.02469;4.6462;0.270978;0;0;0;0
335.9694;2.03874;4.6408;0.28017;0;0;0;0
337.9695;2.04676;4.6509;0.282521;0;0;0;0
339.9695;2.057;4.632;0.290607;0;0;0;0
341.9693;2.07739;4.6383;0.298075;0;0;0;0
343.9694;2.09104;4.5963;0.303758;0;0;0;0
345.9694;2.10147;4.5858;0.309646;0;0;0;0
347.9691;2.1147;4.6187;0.318511;0;0;0;0
349.9691;2.1271;4.5843;0.329636;0;0;0;0
351.9691;2.14793;4.5662;0.334681;0;0;0;0
353.9692;2.15672;4.5476;0.344783;0;0;0;0
355.969;2.17038;4.5517;0.353013;0;0;0;0
357.9691;2.18665;4.54;0.372873;0;0;0;0
359.9689;2.20135;4.4847;0.381791;0;0;0;0

File: SL_180_NT20_90_2.csv
Time[s];Displacement[mm];Force[kN];AxStrain_1;AxStrain_2;Thickness[mm];OuterWidth[mm];InnerWidth[mm]
0;0;-0.0085;0;0;1.017;20;10
1.976;0.004069052;-0.0016;-0.00020002;0;0;0;0
3.976;0.000973369;0.0022;0.001957732;0;0;0;0
5.9762;0.000630281;-0.0003;0.000513903;0;0;0;0
7.9759;-0.002326975;0.0057;0.000468311;0;0;0;0
9.9759;0.001935174;-0.0006;-0.00029478;0;0;0;0
11.9757;-0.001112497;0.0111;0.001467344;0;0;0;0
13.9757;0.002505528;0.1394;-0.000254418;0;0;0;0
15.9757;0.0116718;0.3473;-0.000672156;0;0;0;0
17.9757;0.01665;0.5028;0.001546172;0;0;0;0
19.9757;0.0232524;0.6848;-0.000238625;0;0;0;0
21.9757;0.0267937;0.8757;-0.000166681;0;0;0;0
23.9755;0.03482209;1.0322;0.000603327;0;0;0;0
25.9756;0.0456036;1.2132;0.000335032;0;0;0;0
27.9756;0.0489329;1.3946;0.001202785;0;0;0;0
29.9755;0.06030071;1.5409;0.000424471;0;0;0;0
31.9755;0.064582;1.7103;-0.000286006;0;0;0;0
33.9754;0.0708408;1.844;0.000748842;0;0;0;0
35.9754;0.0801692;1.9622;0.000629626;0;0;0;0
37.9754;0.0891804;2.0712;0.004608662;0;0;0;0
39.9753;0.0993793;2.1616;0.003626749;0;0;0;0
41.9753;0.111484;2.221;0.003158166;0;0;0;0
43.9751;0.122864;2.2605;0.008657155;0;0;0;0
45.9752;0.133396;2.3345;0.005851269;0;0;0;0
47.9752;0.143143;2.379;0.014171;0;0;0;0
49.9751;0.155229;2.4046;0.0102473;0;0;0;0
51.9749;0.165319;2.4173;0.0127933;0;0;0;0
53.975;0.179299;2.4385;0.0142212;0;0;0;0
55.9749;0.19329;2.4618;0.0145273;0;0;0;0
57.9748;0.205905;2.4941;0.0172245;0;0;0;0
59.9748;0.217771;2.5285;0.0177917;0;0;0;0
61.9749;0.230209;2.5247;0.0218971;0;0;0;0
63.9747;0.239722;2.5649;0.0209097;0;0;0;0
65.9748;0.254956;2.5927;0.0233344;0;0;0;0
67.9748;0.26564;2.5611;0.024328;0;0;0;0
69.9747;0.28068;2.6082;0.0257208;0;0;0;0
71.9747;0.293923;2.6164;0.0292794;0;0;0;0
73.9747;0.306542;2.636;0.0264694;0;0;0;0
75.9745;0.320743;2.6344;0.0290085;0;0;0;0
77.9744;0.333222;2.6549;0.0330292;0;0;0;0
79.9745;0.347988;2.6657;0.0335586;0;0;0;0
81.9745;0.358996;2.7036;0.0333635;0;0;0;0
83.9743;0.372108;2.7131;0.033903;0;0;0;0
85.9743;0.385454;2.7282;0.0362659;0;0;0;0
87.9744;0.402222;2.7301;0.0387786;0;0;0;0
89.9744;0.4125642;2.7431;0.0369273;0;0;0;0
91.9743;0.423998;2.7535;0.0412968;0;0;0;0
93.9741;0.43899;2.7437;0.0409163;0;0;0;0
95.9742;0.451497;2.7659;0.0416335;0;0;0;0
97.974;0.467464;2.8;0.0445137;0;0;0;0
99.974;0.477373;2.7832;0.0448409;0;0;0;0
101.9741;0.491215;2.8177;0.0463863;0;0;0;0
103.9739;0.503222;2.8224;0.04804469;0;0;0;0
105.974;0.517193;2.843;0.0483306;0;0;0;0
107.974;0.531942;2.8142;0.0499557;0;0;0;0
109.9738;0.543709;2.8464;0.0507298;0;0;0;0
111.9738;0.555583;2.8395;0.052704;0;0;0;0
113.9737;0.570052;2.8629;0.0533994;0;0;0;0
115.9738;0.582943;2.8499;0.0551459;0;0;0;0
117.9737;0.596191;2.8818;0.0576663;0;0;0;0
119.9738;0.60912;2.8885;0.0595177;0;0;0;0
121.9737;0.62153;2.8815;0.0589109;0;0;0;0
123.9737;0.637421;2.8897;0.0612618;0;0;0;0
125.9735;0.647489;2.9033;0.0615852;0;0;0;0
127.9736;0.660473;2.9109;0.063482;0;0;0;0
129.9734;0.676387;2.9033;0.0636072;0;0;0;0
131.9735;0.687614;2.927;0.06688117;0;0;0;0
133.9735;0.701107;2.9321;0.067716;0;0;0;0
135.9733;0.715363;2.9343;0.0687025;0;0;0;0
137.9733;0.731445;2.957;0.0713296;0;0;0;0
139.9734;0.742756;2.9485;0.0713443;0;0;0;0
141.9733;0.7552729;2.9438;0.0713426;0;0;0;0
143.9733;0.76965;2.9533;0.073363;0;0;0;0
145.9732;0.780708;2.9706;0.07515304;0;0;0;0
147.9732;0.793883;2.9842;0.0773525;0;0;0;0
149.9732;0.807369;2.977;0.0801706;0;0;0;0
151.9731;0.816741;2.9924;0.0789555;0;0;0;0
153.9729;0.833542;3.0016;0.0820553;0;0;0;0
155.9729;0.849879;3.0146;0.0814393;0;0;0;0
157.973;0.860471;2.9691;0.0825028;0;0;0;0
159.9728;0.873494;3.0196;0.0823817;0;0;0;0
161.9728;0.884873;3.0082;0.0869194;0;0;0;0
163.9728;0.898442;3.024;0.08748378;0;0;0;0
165.9727;0.913902;3.0171;0.0891268;0;0;0;0
167.9728;0.925234;3.0402;0.0890931;0;0;0;0
169.9728;0.935487;3.0538;0.0936134;0;0;0;0
171.9727;0.951734;3.0534;0.0934232;0;0;0;0
173.9726;0.969355;3.0632;0.0950294;0;0;0;0
175.9727;0.984026;3.0812;0.0960691;0;0;0;0
177.9726;0.990956;3.0696;0.0985028;0;0;0;0
179.9726;1.0057;3.0373;0.0997215;0;0;0;0
181.9725;1.02042;3.0484;0.100869;0;0;0;0
183.9725;1.03266;3.0787;0.101671;0;0;0;0
185.9724;1.04448;3.0727;0.101505;0;0;0;0
187.9723;1.05895;3.0866;0.104434;0;0;0;0
189.9722;1.07073;3.0914;0.1065435;0;0;0;0
191.9724;1.08708;3.0847;0.106258;0;0;0;0
193.9722;1.10321;3.0895;0.109732;0;0;0;0
195.9721;1.1143;3.0866;0.108651;0;0;0;0
197.9722;1.12194;3.1008;0.109345;0;0;0;0
199.972;1.1408;3.1103;0.111759;0;0;0;0
201.972;1.15166;3.0983;0.112904;0;0;0;0
203.9721;1.16489;3.1144;0.115416;0;0;0;0
205.9719;1.17691;3.129;0.11816;0;0;0;0
207.972;1.19125;3.1226;0.119348;0;0;0;0
209.9718;1.19905;3.1315;0.119885;0;0;0;0
211.9719;1.21681;3.1375;0.121177;0;0;0;0
213.9718;1.22844;3.1324;0.122919;0;0;0;0
215.9717;1.24831;3.1435;0.12364;0;0;0;0
217.9718;1.2517;3.1561;0.126569;0;0;0;0
219.9718;1.26614;3.1362;0.129394;0;0;0;0
221.9716;1.2841;3.1476;0.131913;0;0;0;0
223.9717;1.29907;3.1524;0.131141;0;0;0;0
225.9717;1.3107;3.1558;0.131622;0;0;0;0
227.9715;1.32291;3.1552;0.136448;0;0;0;0
229.9716;1.33935;3.1533;0.131994;0;0;0;0
231.9716;1.34946;3.1577;0.138555;0;0;0;0
233.9714;1.36416;3.1994;0.138596;0;0;0;0
235.9715;1.37675;3.1738;0.13871;0;0;0;0
237.9713;1.39151;3.1937;0.140061;0;0;0;0
239.9713;1.40478;3.1893;0.139431;0;0;0;0
241.9712;1.41389;3.1896;0.143254;0;0;0;0
243.9713;1.42912;3.1998;0.144006;0;0;0;0
245.9713;1.44465;3.2089;0.148611;0;0;0;0
247.9711;1.45924;3.1937;0.148447;0;0;0;0
249.9712;1.4708;3.1824;0.149265;0;0;0;0
251.971;1.48504;3.2168;0.148455;0;0;0;0
253.971;1.4962;3.1985;0.148556;0;0;0;0
255.9711;1.50895;3.1975;0.152676;0;0;0;0
257.971;1.52282;3.2054;0.155877;0;0;0;0
259.971;1.53364;3.2241;0.154741;0;0;0;0
261.9708;1.54778;3.2304;0.157433;0;0;0;0
263.9708;1.56283;3.213;0.156746;0;0;0;0
265.9707;1.57613;3.2266;0.159081;0;0;0;0
267.9707;1.58727;3.2203;0.161005;0;0;0;0
269.9708;1.60083;3.2351;0.163876;0;0;0;0
271.9706;1.61511;3.2092;0.164158;0;0;0;0
273.9707;1.63071;3.2238;0.164833;0;0;0;0
275.9706;1.64286;3.2276;0.167186;0;0;0;0
277.9707;1.65713;3.2156;0.168306;0;0;0;0
279.9706;1.66925;3.2434;0.168325;0;0;0;0
281.9704;1.68051;3.238;0.169371;0;0;0;0
283.9704;1.69433;3.226;0.174205;0;0;0;0
285.9705;1.70518;3.2472;0.174949;0;0;0;0
287.9703;1.71968;3.2314;0.172367;0;0;0;0
289.9703;1.73599;3.2348;0.177939;0;0;0;0
291.9703;1.74677;3.2642;0.176506;0;0;0;0
293.9703;1.76182;3.2503;0.178636;0;0;0;0
295.9702;1.77081;3.2159;0.180141;0;0;0;0
297.9703;1.78684;3.2601;0.185665;0;0;0;0
299.9702;1.80581;3.2544;0.183686;0;0;0;0
301.9701;1.81246;3.2484;0.184287;0;0;0;0
303.9702;1.82239;3.2683;0.188959;0;0;0;0
305.97;1.84063;3.2468;0.188841;0;0;0;0
307.9701;1.85528;3.2462;0.191643;0;0;0;0
309.97;1.87372;3.2702;0.192576;0;0;0;0
311.97;1.87923;3.2582;0.193357;0;0;0;0
313.9699;1.89309;3.2554;0.194886;0;0;0;0
315.9698;1.9094;3.2756;0.197803;0;0;0;0
317.9697;1.91876;3.2661;0.200078;0;0;0;0
319.9698;1.93368;3.2566;0.202631;0;0;0;0
321.9698;1.94511;3.2661;0.201126;0;0;0;0
323.9696;1.96191;3.2778;0.203488;0;0;0;0
325.9697;1.97037;3.2617;0.204848;0;0;0;0
327.9695;1.98524;3.274;0.210063;0;0;0;0
329.9695;2.00135;3.2949;0.209365;0;0;0;0
331.9696;2.01513;3.2642;0.211939;0;0;0;0
333.9694;2.02779;3.257;0.215838;0;0;0;0
335.9695;2.0391;3.2617;0.217323;0;0;0;0
337.9693;2.05337;3.2753;0.217148;0;0;0;0
339.9695;2.069;3.2715;0.221348;0;0;0;0
341.9694;2.08118;3.2557;0.222031;0;0;0;0
343.9692;2.09201;3.2984;0.223754;0;0;0;0
345.9692;2.10835;3.2898;0.226789;0;0;0;0
347.9693;2.12127;3.2826;0.22998;0;0;0;0
349.9692;2.13374;3.2854;0.231322;0;0;0;0
351.9691;2.14612;3.286;0.235559;0;0;0;0
353.969;2.16174;3.2731;0.238807;0;0;0;0
355.969;2.17415;3.2642;0.242031;0;0;0;0
357.9689;2.19021;3.263;0.245322;0;0;0;0
359.9689;2.1981;3.269;0.247488;0;0;0;0
361.969;2.21231;3.2513;0.249993;0;0;0;0
363.969;2.23496;3.2645;0.254848;0;0;0;0
365.9689;2.23853;3.2756;0.257392;0;0;0;0
367.9689;2.25536;3.2626;0.261006;0;0;0;0
369.9687;2.26827;3.2668;0.266933;0;0;0;0
371.9687;2.27889;3.2803;0.267103;0;0;0;0
373.9686;2.29304;3.2589;0.269836;0;0;0;0
375.9686;2.30629;3.2544;0.275753;0;0;0;0
377.9687;2.31892;3.2699;0.279678;0;0;0;0
379.9687;2.33286;3.2532;0.281679;0;0;0;0
381.9685;2.34779;3.2528;0.285436;0;0;0;0
383.9686;2.36201;3.2573;0.291392;0;0;0;0
385.9684;2.37185;3.2611;0.294141;0;0;0;0
387.9684;2.38595;3.2358;0.299029;0;0;0;0
389.9685;2.40236;3.2494;0.30481;0;0;0;0
391.9684;2.41414;3.2219;0.310375;0;0;0;0
393.9683;2.43312;3.2118;0.31572;0;0;0;0
395.9683;2.43923;3.213;0.320978;0;0;0;0
397.9683;2.45424;3.2083;0.321997;0;0;0;0
399.9683;2.47144;3.2219;0.332055;0;0;0;0
401.9682;2.48143;3.2222;0.334576;0;0;0;0
403.9682;2.49257;3.1843;0.340252;0;0;0;0
405.9682;2.50706;3.2064;0.344996;0;0;0;0
407.9681;2.52293;3.1751;0.351085;0;0;0;0
409.9681;2.53705;3.1912;0.357873;0;0;0;0
411.968;2.54803;3.1729;0.372188;0;0;0;0
413.9679;2.56113;3.1378;0.384788;0;0;0;0
415.9678;2.57653;3.1236;0.395943;0;0;0;0
417.9678;2.5889;3.1233;0.395828;0;0;0;0
419.9679;2.60414;3.116;0.40626;0;0;0;0
421.9677;2.61958;3.0708;0.412551;0;0;0;0
423.9677;2.63134;3.0642;0.418896;0;0;0;0
425.9676;2.64835;3.0199;0.414303;0;0;0;0
426.4678;2.65274;3.0032;0.420551;0;0;0;0