Folder: ethz/LAB_DATA/AA7020-T6_results/DATA (part 4)

File: SL_320_NT20_90_1.csv
Time[s];Displacement[mm];Force[kN];AxStrain_1;AxStrain_2;Thickness[mm];OuterWidth[mm];InnerWidth[mm]
0;0;-0.0035;0;0;1.022;20;10.01
1.4665;0.000508641;0.001;0.000164899;0;0;0;0
2.9664;-0.00120629;0.0029;-0.000981183;0;0;0;0
4.4664;-0.001863788;0.007;-0.001002256;0;0;0;0
5.9664;0.00030017;-0.0047;-0.001365845;0;0;0;0
7.4663;0.000656271;0.0022;-0.001165591;0;0;0;0
8.9663;0.002199726;0.0689;-0.000933769;0;0;0;0
10.4663;0.007423593;0.2111;-0.00113222;0;0;0;0
11.9663;0.01487068;0.3277;-0.001297332;0;0;0;0
13.4664;0.0190254;0.4586;-0.001501126;0;0;0;0
14.9662;0.0257781;0.5385;-0.001188425;0;0;0;0
16.4663;0.0300748;0.6472;-0.001483556;0;0;0;0
17.9661;0.0353178;0.7591;-0.000781007;0;0;0;0
19.4661;0.0422038;0.8545;-0.000665133;0;0;0;0
20.9661;0.0449468;0.9484;-0.000891625;0;0;0;0
22.466;0.0536685;1.0388;-0.000838948;0;0;0;0
23.966;0.0570118;1.1178;-0.001202477;0;0;0;0
25.466;0.0647131;1.1883;-0.000447469;0;0;0;0
26.9659;0.07109712;1.2739;-0.000252663;0;0;0;0
28.4659;0.0787024;1.339;0.000815457;0;0;0;0
29.9659;0.085263;1.3602;0.000808445;0;0;0;0
31.4658;0.0915862;1.4303;0.001197528;0;0;0;0
32.9658;0.102877;1.4272;0.002199334;0;0;0;0
34.4658;0.115536;1.4496;0.003514868;0;0;0;0
35.9657;0.118929;1.4645;0.0039728;0;0;0;0
37.4657;0.129743;1.4569;0.005980328;0;0;0;0
38.9658;0.14003;1.4632;0.008055189;0;0;0;0
40.4657;0.151777;1.4714;0.008888451;0;0;0;0
41.9656;0.161125;1.4433;0.0093335;0;0;0;0
43.4656;0.170975;1.4553;0.0115939;0;0;0;0
44.9656;0.181544;1.4319;0.0131587;0;0;0;0
46.4655;0.189726;1.4344;0.0147088;0;0;0;0
47.9655;0.202521;1.4512;0.0169727;0;0;0;0
49.4655;0.211755;1.4452;0.0180743;0;0;0;0
50.9654;0.220234;1.4243;0.0200021;0;0;0;0
52.4654;0.230197;1.4237;0.0223741;0;0;0;0
53.9654;0.240072;1.4231;0.0234064;0;0;0;0
55.4655;0.250596;1.4265;0.02706549;0;0;0;0
56.9653;0.261214;1.4107;0.0287903;0;0;0;0
58.4653;0.272865;1.4174;0.031281;0;0;0;0
59.9655;0.281648;1.3921;0.0335926;0;0;0;0
61.4654;0.291994;1.3962;0.0380257;0;0;0;0
62.9652;0.302225;1.3968;0.0400925;0;0;0;0
64.4651;0.313048;1.3836;0.0422088;0;0;0;0
65.9651;0.324268;1.3684;0.0449063;0;0;0;0
67.4652;0.335485;1.3573;0.0476717;0;0;0;0
68.9651;0.344556;1.3652;0.05137;0;0;0;0
70.465;0.351541;1.3599;0.0543519;0;0;0;0
71.965;0.364258;1.3371;0.0564384;0;0;0;0
73.465;0.37608;1.3396;0.0611776;0;0;0;0
74.9649;0.384625;1.339;0.0630703;0;0;0;0
76.4649;0.392311;1.3156;0.0663461;0;0;0;0
77.9649;0.405172;1.2919;0.0701707;0;0;0;0
79.4648;0.417545;1.3153;0.0732276;0;0;0;0
80.9648;0.425807;1.2982;0.0771332;0;0;0;0
82.4648;0.437013;1.2824;0.0788825;0;0;0;0
83.9648;0.447858;1.2625;0.0822201;0;0;0;0
85.4647;0.45817;1.2666;0.0855884;0;0;0;0
86.9647;0.467287;1.2654;0.08992409;0;0;0;0
88.4647;0.479884;1.2464;0.0931787;0;0;0;0
89.9646;0.489193;1.2385;0.09803215;0;0;0;0
91.4646;0.501029;1.2391;0.101346;0;0;0;0
92.9646;0.508715;1.2376;0.105688;0;0;0;0
94.4645;0.522318;1.223;0.110698;0;0;0;0
95.9645;0.52977;1.2145;0.116004;0;0;0;0
97.4645;0.540362;1.2139;0.121104;0;0;0;0
98.9646;0.55186;1.1845;0.127152;0;0;0;0
100.4645;0.561077;1.1987;0.132203;0;0;0;0
101.9645;0.573504;1.1671;0.13802;0;0;0;0
103.4643;0.58282;1.1614;0.141538;0;0;0;0
104.9643;0.594578;1.1766;0.147782;0;0;0;0
106.4644;0.602442;1.1601;0.152849;0;0;0;0
107.9643;0.614334;1.1434;0.157978;0;0;0;0
109.4642;0.622469;1.1443;0.164403;0;0;0;0
110.9642;0.633636;1.1374;0.17037;0;0;0;0
112.4642;0.642784;1.1295;0.17517;0;0;0;0
113.9641;0.65512;1.1143;0.180935;0;0;0;0
115.4641;0.664677;1.1064;0.187728;0;0;0;0
116.9642;0.675925;1.0909;0.191251;0;0;0;0
118.464;0.684668;1.0931;0.196395;0;0;0;0
119.964;0.698497;1.066;0.201687;0;0;0;0
121.464;0.707229;1.0647;0.207331;0;0;0;0
122.9639;0.716169;1.0483;0.216216;0;0;0;0
124.4639;0.726516;1.0521;0.219898;0;0;0;0
125.9639;0.737466;1.0536;0.224737;0;0;0;0
127.4639;0.748361;1.0407;0.23068;0;0;0;0
128.9638;0.761261;1.0306;0.239176;0;0;0;0
130.4638;0.77113;1.0312;0.243641;0;0;0;0
131.9638;0.780486;1.0176;0.249685;0;0;0;0
133.4637;0.790041;1.0214;0.252141;0;0;0;0
134.9637;0.800067;1.016;0.258066;0;0;0;0
136.4638;0.813118;0.9851;0.263341;0;0;0;0
137.9636;0.820995;0.9939;0.267125;0;0;0;0
139.4636;0.831388;0.9768;0.274989;0;0;0;0
140.9636;0.840815;0.9633;0.280361;0;0;0;0
142.4635;0.853334;0.9547;0.286019;0;0;0;0
143.9635;0.864752;0.9569;0.293192;0;0;0;0
145.4635;0.871217;0.937;0.299583;0;0;0;0
146.9636;0.884814;0.9285;0.305497;0;0;0;0
148.4634;0.894828;0.9263;0.311474;0;0;0;0
149.9634;0.903885;0.9238;0.316854;0;0;0;0
151.4633;0.916043;0.914;0.321553;0;0;0;0
152.9633;0.924226;0.9209;0.329348;0;0;0;0
154.4633;0.935095;0.8953;0.331513;0;0;0;0
155.9633;0.945494;0.8975;0.340663;0;0;0;0
157.4632;0.955983;0.8918;0.347123;0;0;0;0
158.9632;0.96761;0.8884;0.351808;0;0;0;0
160.4633;0.978878;0.8754;0.357222;0;0;0;0
161.9631;0.987325;0.8495;0.365388;0;0;0;0
163.4631;0.999609;0.8564;0.370584;0;0;0;0
164.9631;1.00693;0.8574;0.378821;0;0;0;0
166.463;1.01732;0.8163;0.384829;0;0;0;0
167.963;1.02876;0.8343;0.39094;0;0;0;0
169.463;1.03946;0.8359;0.398036;0;0;0;0
170.9629;1.04866;0.7942;0.404385;0;0;0;0
172.4629;1.05981;0.8084;0.412261;0;0;0;0
173.9629;1.0688;0.7967;0.419506;0;0;0;0
175.4628;1.08135;0.7806;0.426447;0;0;0;0
176.9628;1.08795;0.7746;0.434322;0;0;0;0
178.4628;1.10313;0.773;0.441452;0;0;0;0
179.9628;1.11359;0.7578;0.446197;0;0;0;0
181.4627;1.12316;0.7231;0.452685;0;0;0;0
182.9627;1.13276;0.7171;0.462434;0;0;0;0
184.4627;1.14761;0.6722;0.468124;0;0;0;0
185.9626;1.15489;0.6425;0.479087;0;0;0;0
187.4626;1.16945;0.6036;0.487618;0;0;0;0
188.9627;1.17856;0.597;0.49409;0;0;0;0
190.4625;1.18814;0.5439;0.5022309;0;0;0;0
191.9625;1.20238;0.5227;0.508928;0;0;0;0
193.4625;1.21139;0.5167;0.516752;0;0;0;0
194.9626;1.22422;0.4959;0.525995;0;0;0;0
196.4624;1.23353;0.4832;0.52976;0;0;0;0
197.9625;1.24457;0.4696;0.538586;0;0;0;0
199.4624;1.25603;0.4598;0.543736;0;0;0;0
200.9623;1.26454;0.4377;0.550491;0;0;0;0
202.4623;1.27802;0.414;0.557704;0;0;0;0
203.9623;1.28617;0.3995;0.563259;0;0;0;0
205.4622;1.2971;0.3865;0.571491;0;0;0;0
206.9622;1.30825;0.3669;0.574548;0;0;0;0
208.4623;1.31772;0.3625;0.583644;0;0;0;0
209.9623;1.33019;0.3619;0.588018;0;0;0;0
211.4621;1.33855;0.3445;0.593757;0;0;0;0
212.9621;1.35111;0.3325;0.600643;0;0;0;0
214.462;1.35942;0.3322;0.605461;0;0;0;0
215.962;1.37041;0.3151;0.611406;0;0;0;0
217.4621;1.38118;0.3164;0.618409;0;0;0;0
218.9619;1.39075;0.2971;0.622068;0;0;0;0
220.4619;1.40276;0.2974;0.630072;0;0;0;0
221.9619;1.41034;0.2885;0.63499;0;0;0;0
223.4618;1.42319;0.2854;0.640029;0;0;0;0
224.9618;1.4342;0.2832;0.64733;0;0;0;0
226.4618;1.44562;0.2661;0.653359;0;0;0;0
227.9618;1.45243;0.2598;0.655728;0;0;0;0
229.4617;1.46331;0.2494;0.661725;0;0;0;0
230.9617;1.47358;0.2345;0.667706;0;0;0;0
232.4617;1.4832;0.2415;0.672256;0;0;0;0
233.9616;1.4942;0.219;0.678901;0;0;0;0
235.4618;1.507;0.2171;0.683741;0;0;0;0
236.9616;1.51483;0.2238;0.688384;0;0;0;0
238.4615;1.52251;0.214;0.694325;0;0;0;0
239.9615;1.53479;0.2099;0.700085;0;0;0;0
241.4615;1.54635;0.1991;0.70497;0;0;0;0
242.9614;1.55734;0.1811;0.712012;0;0;0;0
244.4614;1.56698;0.1896;0.715424;0;0;0;0
245.9614;1.57508;0.1846;0.719635;0;0;0;0
247.4613;1.58667;0.1675;0.725114;0;0;0;0
248.9613;1.59558;0.1855;0.729916;0;0;0;0
250.4613;1.60549;0.1672;0.735232;0;0;0;0
251.9613;1.6198;0.1628;0.741729;0;0;0;0
253.4612;1.62989;0.1546;0.74613;0;0;0;0
254.9612;1.6395;0.1533;0.751006;0;0;0;0
256.4612;1.646;0.1425;0.756721;0;0;0;0
257.9611;1.6589;0.1337;0.759928;0;0;0;0
259.4612;1.66852;0.1293;0.767051;0;0;0;0
260.9611;1.67856;0.1236;0.771157;0;0;0;0
262.461;1.68897;0.1255;0.774609;0;0;0;0
263.961;1.70106;0.1097;0.780255;0;0;0;0
265.461;1.71094;0.1075;0.784534;0;0;0;0
266.9609;1.71815;0.1151;0.790046;0;0;0;0
268.4609;1.73045;0.0974;0.795124;0;0;0;0
269.9609;1.74233;0.1046;0.80026;0;0;0;0
271.461;1.74944;0.0955;0.804335;0;0;0;0
272.9608;1.75921;0.0806;0.809157;0;0;0;0
274.4608;1.76933;0.0863;0.813684;0;0;0;0
275.9608;1.78199;0.0844;0.817435;0;0;0;0
277.4607;1.79207;0.0746;0.821577;0;0;0;0
278.9607;1.80223;0.073;0.826241;0;0;0;0
280.4608;1.814;0.068;0.830223;0;0;0;0
281.9606;1.82179;0.0692;0.83589;0;0;0;0
283.4606;1.8344;0.0654;0.839482;0;0;0;0
284.9607;1.84218;0.061;0.844222;0;0;0;0
286.4605;1.85717;0.0455;0.848454;0;0;0;0
287.9607;1.8639;0.055;0.853018;0;0;0;0
289.4605;1.87332;0.0484;0.858574;0;0;0;0
290.9606;1.88412;0.043;0.862335;0;0;0;0
292.4604;1.8923;0.0345;0.866132;0;0;0;0
293.9604;1.90279;0.0376;0.8717;0;0;0;0
295.4605;1.91466;0.0247;0.875554;0;0;0;0
296.9603;1.92251;0.0225;0.880596;0;0;0;0
298.4603;1.93218;0.0231;0.883926;0;0;0;0
299.9603;1.94332;0.0146;0.888135;0;0;0;0
301.4604;1.95561;0.0158;0.892338;0;0;0;0
302.9602;1.96364;0.0111;0.896634;0;0;0;0
304.4602;1.97481;0.0104;0.900176;0;0;0;0
305.9601;1.98555;0.0016;0.904658;0;0;0;0
307.4601;1.99253;0.0035;0.910353;0;0;0;0
308.9601;2.0083;-0.0091;0.912516;0;0;0;0
310.46;2.01583;-0.0114;0.919065;0;0;0;0
311.96;2.02373;-0.0129;0.922027;0;0;0;0
313.46;2.0345;-0.0155;0.926289;0;0;0;0
314.9601;2.04709;-0.017;0.930152;0;0;0;0
316.4599;2.0541;-0.0183;0.934524;0;0;0;0
317.9599;2.06668;-0.0249;0.938021;0;0;0;0
319.4598;2.07739;-0.0189;0.941548;0;0;0;0
320.9598;2.08596;-0.0208;0.945503;0;0;0;0
322.4598;2.09604;-0.0227;0.950141;0;0;0;0
323.9598;2.10525;-0.0183;0.9550498;0;0;0;0
325.4597;2.11848;-0.0189;0.958574;0;0;0;0
326.9597;2.12964;-0.0196;0.962327;0;0;0;0
328.4597;2.1364;-0.0202;0.965143;0;0;0;0
329.9596;2.14725;-0.0218;0.96945;0;0;0;0
331.4596;2.1549;-0.0221;0.972656;0;0;0;0
332.9597;2.15656;-0.0208;0.973192;0;0;0;0
334.4595;2.15356;-0.0224;0.972101;0;0;0;0
334.9595;2.15725;-0.0221;0.973931;0;0;0;0

File: SL_SH_45_1.csv
Time[s];Displacement[mm];Force[kN];AxStrain_1;AxStrain_2;Thickness[mm];OuterWidth[mm];InnerWidth[mm]
0;0;0.04551;0;0;1.015;0;0
0.9761;0.000424764;0.04911;0;0;0;0;0
1.9761;-6.64E-04;0.03168;0;0;0;0;0
2.976;-0.001406312;0.01329;0;0;0;0;0
3.976;-0.002024497;0.00456;0;0;0;0;0
4.9763;-0.001192664;0.01308;0;0;0;0;0
5.9759;0.000129673;0.033;0;0;0;0;0
6.9759;0.000424064;0.04344;0;0;0;0;0
7.9759;0.000200681;0.04704;0;0;0;0;0
8.9759;0.002765187;0.06003;0;0;0;0;0
9.9758;0.008275238;0.06921;0;0;0;0;0
10.9758;0.0151339;0.09681;0;0;0;0;0
11.9758;0.0220309;0.14391;0;0;0;0;0
12.9757;0.0295165;0.1956;0;0;0;0;0
13.9757;0.0343941;0.22158;0;0;0;0;0
14.9757;0.03919297;0.22905;0;0;0;0;0
15.9756;0.0441808;0.23571;0;0;0;0;0
16.9756;0.0512706;0.26337;0;0;0;0;0
17.9756;0.0584028;0.30954;0;0;0;0;0
18.9756;0.0652314;0.35175;0;0;0;0;0
19.9755;0.0698041;0.36576;0;0;0;0;0
20.9755;0.0745035;0.3633;0;0;0;0;0
21.9755;0.0800737;0.37185;0;0;0;0;0
22.9754;0.0876277;0.41544;0;0;0;0;0
23.9754;0.0946778;0.44361;0;0;0;0;0
24.9754;0.101585;0.47499;0;0;0;0;0
25.9754;0.107407;0.48825;0;0;0;0;0
26.9753;0.111685;0.48657;0;0;0;0;0
27.9753;0.117479;0.47859;0;0;0;0;0
28.9753;0.123194;0.48939;0;0;0;0;0
29.9752;0.13162;0.51945;0;0;0;0;0
30.9752;0.138894;0.5553;0;0;0;0;0
31.9752;0.144887;0.56277;0;0;0;0;0
32.9752;0.149378;0.55386;0;0;0;0;0
33.9751;0.154431;0.54447;0;0;0;0;0
34.9751;0.162386;0.55701;0;0;0;0;0
35.975;0.170076;0.58818;0;0;0;0;0
36.975;0.176915;0.61266;0;0;0;0;0
37.975;0.182488;0.60849;0;0;0;0;0
38.975;0.187043;0.58791;0;0;0;0;0
39.9749;0.192997;0.58848;0;0;0;0;0
40.9749;0.201065;0.60837;0;0;0;0;0
41.9749;0.208773;0.6393;0;0;0;0;0
42.9749;0.215228;0.65769;0;0;0;0;0
43.9748;0.220607;0.65172;0;0;0;0;0
44.9748;0.22598;0.63351;0;0;0;0;0
45.9747;0.232334;0.63039;0;0;0;0;0
46.9747;0.239688;0.65172;0;0;0;0;0
47.9747;0.247432;0.68223;0;0;0;0;0
48.9747;0.2536022;0.68763;0;0;0;0;0
49.9746;0.258583;0.67143;0;0;0;0;0
50.9746;0.264827;0.65769;0;0;0;0;0
51.9746;0.272346;0.67113;0;0;0;0;0
52.9746;0.280081;0.70632;0;0;0;0;0
53.9745;0.286895;0.71211;0;0;0;0;0
54.9745;0.291286;0.69618;0;0;0;0;0
55.9745;0.296911;0.67542;0;0;0;0;0
56.9744;0.304266;0.68754;0;0;0;0;0
57.9744;0.313186;0.71988;0;0;0;0;0
58.9744;0.319582;0.73581;0;0;0;0;0
59.9743;0.324705;0.73941;0;0;0;0;0
60.9743;0.329333;0.71655;0;0;0;0;0
61.9743;0.336021;0.71211;0;0;0;0;0
62.9742;0.343797;0.72396;0;0;0;0;0
63.9742;0.351968;0.75324;0;0;0;0;0
64.9742;0.35814;0.76482;0;0;0;0;0
65.9741;0.363567;0.75192;0;0;0;0;0
66.9741;0.368547;0.73401;0;0;0;0;0
67.9741;0.375903;0.73485;0;0;0;0;0
68.9741;0.383872;0.76443;0;0;0;0;0
69.974;0.391377;0.78246;0;0;0;0;0
70.974;0.396477;0.77733;0;0;0;0;0
71.974;0.40265;0.74955;0;0;0;0;0
72.9739;0.408254;0.75495;0;0;0;0;0
73.9739;0.416143;0.77364;0;0;0;0;0
74.9739;0.423956;0.79677;0;0;0;0;0
75.9739;0.430023;0.79989;0;0;0;0;0
76.9738;0.435119;0.79419;0;0;0;0;0
77.9738;0.440505;0.77961;0;0;0;0;0
78.9738;0.448042;0.77592;0;0;0;0;0
79.9737;0.455894;0.79704;0;0;0;0;0
80.9737;0.463609;0.82227;0;0;0;0;0
81.9737;0.468585;0.82017;0;0;0;0;0
82.9737;0.473836;0.79941;0;0;0;0;0
83.9736;0.4804548;0.7905;0;0;0;0;0
84.9736;0.487836;0.80313;0;0;0;0;0
85.9736;0.496498;0.83061;0;0;0;0;0
86.9735;0.502551;0.83904;0;0;0;0;0
87.9735;0.507276;0.81507;0;0;0;0;0
88.9735;0.513113;0.79932;0;0;0;0;0
89.9734;0.520691;0.81174;0;0;0;0;0
90.9734;0.528831;0.84549;0;0;0;0;0
91.9734;0.534967;0.85119;0;0;0;0;0
92.9733;0.540094;0.83118;0;0;0;0;0
93.9734;0.546192;0.8145;0;0;0;0;0
94.9733;0.554367;0.83241;0;0;0;0;0
95.9733;0.561779;0.86589;0;0;0;0;0
96.9732;0.567088;0.86379;0;0;0;0;0
97.9732;0.571878;0.83166;0;0;0;0;0
98.9732;0.578887;0.83307;0;0;0;0;0
99.9731;0.587963;0.86247;0;0;0;0;0
100.9731;0.594428;0.87726;0;0;0;0;0
101.9731;0.599088;0.85572;0;0;0;0;0
102.9731;0.604824;0.83745;0;0;0;0;0
103.973;0.613233;0.85707;0;0;0;0;0
104.973;0.62079;0.88806;0;0;0;0;0
105.973;0.626813;0.87819;0;0;0;0;0
106.9729;0.631142;0.85146;0;0;0;0;0
107.9729;0.6387;0.84843;0;0;0;0;0
108.9729;0.646997;0.87402;0;0;0;0;0
109.9728;0.654547;0.89592;0;0;0;0;0
110.9728;0.659883;0.88968;0;0;0;0;0
111.9728;0.664833;0.87288;0;0;0;0;0
112.9728;0.671562;0.86256;0;0;0;0;0
113.9727;0.679591;0.88095;0;0;0;0;0
114.9727;0.687376;0.91149;0;0;0;0;0
115.9727;0.693168;0.90807;0;0;0;0;0
116.9726;0.697367;0.88248;0;0;0;0;0
117.9726;0.704316;0.87165;0;0;0;0;0
118.9726;0.712797;0.89412;0;0;0;0;0
119.9725;0.72018;0.92334;0;0;0;0;0
120.9725;0.725657;0.91035;0;0;0;0;0
121.9725;0.730809;0.87888;0;0;0;0;0
122.9724;0.738432;0.88656;0;0;0;0;0
123.9724;0.746775;0.92181;0;0;0;0;0
124.9724;0.752832;0.92484;0;0;0;0;0
125.9724;0.757262;0.89688;0;0;0;0;0
126.9723;0.763634;0.88824;0;0;0;0;0
127.9723;0.772417;0.9147;0;0;0;0;0
128.9723;0.780176;0.93576;0;0;0;0;0
129.9722;0.784809;0.93102;0;0;0;0;0
130.9722;0.789824;0.89916;0;0;0;0;0
131.9722;0.797739;0.9039;0;0;0;0;0
132.9722;0.806516;0.93783;0;0;0;0;0
133.9721;0.81239;0.94665;0;0;0;0;0
134.9721;0.816912;0.9183;0;0;0;0;0
135.9721;0.823294;0.90009;0;0;0;0;0
136.972;0.831564;0.91887;0;0;0;0;0
137.972;0.839203;0.95244;0;0;0;0;0
138.972;0.845757;0.95034;0;0;0;0;0
139.9719;0.850218;0.92334;0;0;0;0;0
140.9719;0.855862;0.90891;0;0;0;0;0
141.9719;0.864385;0.92484;0;0;0;0;0
142.9719;0.872641;0.9567;0;0;0;0;0
143.9718;0.878855;0.95916;0;0;0;0;0
144.9718;0.883719;0.93291;0;0;0;0;0
145.9718;0.889493;0.9165;0;0;0;0;0
146.9717;0.897126;0.92532;0;0;0;0;0
147.9717;0.905432;0.95595;0;0;0;0;0
148.9717;0.912574;0.97425;0;0;0;0;0
149.9716;0.917062;0.951;0;0;0;0;0
150.9716;0.922588;0.9294;0;0;0;0;0
151.9716;0.9297;0.92949;0;0;0;0;0
152.9715;0.938791;0.96381;0;0;0;0;0
153.9715;0.945897;0.9786;0;0;0;0;0
154.9715;0.950674;0.9642;0;0;0;0;0
155.9715;0.955406;0.93735;0;0;0;0;0
156.9715;0.963039;0.93498;0;0;0;0;0
157.9714;0.971634;0.96411;0;0;0;0;0
158.9714;0.978907;0.98382;0;0;0;0;0
159.9713;0.984492;0.97008;0;0;0;0;0
160.9713;0.988865;0.94257;0;0;0;0;0
161.9713;0.996005;0.94164;0;0;0;0;0
162.9713;1.00466;0.96771;0;0;0;0;0
163.9712;1.01185;0.99132;0;0;0;0;0
164.9712;1.01751;0.99159;0;0;0;0;0
165.9712;1.02247;0.95832;0;0;0;0;0
166.9711;1.02929;0.95112;0;0;0;0;0
167.9711;1.03759;0.96504;0;0;0;0;0
168.9711;1.04541;0.99369;0;0;0;0;0
169.971;1.05119;0.99483;0;0;0;0;0
170.971;1.05641;0.97074;0;0;0;0;0
171.971;1.06245;0.95367;0;0;0;0;0
172.971;1.07014;0.95898;0;0;0;0;0
173.9709;1.07867;0.9915;0;0;0;0;0
174.9709;1.08523;1.00335;0;0;0;0;0
175.9709;1.09029;0.9858;0;0;0;0;0
176.9708;1.09581;0.9621;0;0;0;0;0
177.9708;1.10279;0.95898;0;0;0;0;0
178.9708;1.11162;0.98979;0;0;0;0;0
179.9707;1.11866;1.00914;0;0;0;0;0
180.9707;1.12364;1.00515;0;0;0;0;0
181.9707;1.12883;0.96846;0;0;0;0;0
182.9707;1.13612;0.96495;0;0;0;0;0
183.9706;1.1454;0.99966;0;0;0;0;0
184.9706;1.15278;1.01502;0;0;0;0;0
185.9706;1.15683;1.00155;0;0;0;0;0
186.9705;1.1618;0.97311;0;0;0;0;0
187.9705;1.16898;0.97083;0;0;0;0;0
188.9705;1.17838;1.00125;0;0;0;0;0
189.9704;1.18523;1.01709;0;0;0;0;0
190.9704;1.19024;1.0026;0;0;0;0;0
191.9704;1.19543;0.97662;0;0;0;0;0
192.9704;1.20268;0.97425;0;0;0;0;0
193.9703;1.21115;1.00164;0;0;0;0;0
194.9703;1.21873;1.01994;0;0;0;0;0
195.9703;1.2241;1.01112;0;0;0;0;0
196.9703;1.22909;0.98988;0;0;0;0;0
197.9702;1.23562;0.97698;0;0;0;0;0
198.9702;1.24382;0.98817;0;0;0;0;0
199.9702;1.25135;1.01367;0;0;0;0;0
200.9701;1.25815;1.02867;0;0;0;0;0
201.9701;1.26384;1.02297;0;0;0;0;0
202.9701;1.26896;1.00317;0;0;0;0;0
203.97;1.27535;0.98457;0;0;0;0;0
204.97;1.28282;0.9606;0;0;0;0;0
205.97;1.29093;0.99804;0;0;0;0;0
206.9699;1.29836;1.0242;0;0;0;0;0
207.9699;1.30441;1.02723;0;0;0;0;0
208.4699;1.30756;0.98808;0;0;0;0;0