Folder: ethz/LAB_DATA/AA7020-T6_results/DATA (part 2)

File: SL_180_SH2_90_2.csv
Time[s];Displacement[mm];Force[kN];AxStrain_1;AxStrain_2;Thickness[mm];Width[mm];Inner width
0;0;0.0007;0;0;1.02;20;0
1.0001;7.55E-05;0.0041;0;0;0;0;0
2.0001;0.000160919;0;0;0;0;0;0
3.0002;-0.000403476;0.0016;0;0;0;0;0
3.9998;4.31E-05;0.0022;0;0;0;0;0
5.0002;-1.26823E-05;0.0032;0;0;0;0;0
6.0001;0.003278414;0.0184;0;0;0;0;0
7;0.008276525;0.0379;0;0;0;0;0
8.0001;0.01372349;0.0639;0;0;0;0;0
8.9998;0.01955787;0.091;0;0;0;0;0
9.9999;0.02424587;0.1198;0;0;0;0;0
11;0.0302956;0.1381;0;0;0;0;0
11.9997;0.0355113;0.1644;0;0;0;0;0
12.9998;0.0414361;0.1903;0;0;0;0;0
13.9999;0.0485031;0.2064;0;0;0;0;0
14.9998;0.0537469;0.2263;0;0;0;0;0
15.9997;0.0581283;0.2437;0;0;0;0;0
16.9996;0.064646;0.2592;0;0;0;0;0
18;0.0695929;0.2803;0;0;0;0;0
18.9996;0.0750446;0.2968;0;0;0;0;0
19.9997;0.0819582;0.3164;0;0;0;0;0
20.9998;0.087226;0.3299;0;0;0;0;0
21.9996;0.0929465;0.3473;0;0;0;0;0
22.9996;9.87E-02;0.3552;0;0;0;0;0
23.9995;0.105047;0.3616;0;0;0;0;0
24.9996;1.11E-01;0.378;0;0;0;0;0
25.9997;0.117867;0.3849;0;0;0;0;0
26.9995;0.124348;0.3969;0;0;0;0;0
27.9996;1.30E-01;0.3998;0;0;0;0;0
28.9996;0.136492;0.4099;0;0;0;0;0
29.9995;1.43E-01;0.4162;0;0;0;0;0
30.9994;0.149765;0.426;0;0;0;0;0
31.9995;0.155613;0.4289;0;0;0;0;0
32.9995;0.161723;0.438;0;0;0;0;0
33.9993;1.69E-01;0.4434;0;0;0;0;0
34.9994;1.74E-01;0.4431;0;0;0;0;0
35.9993;1.80E-01;0.4462;0;0;0;0;0
36.9993;1.87E-01;0.4481;0;0;0;0;0
37.9994;0.192947;0.4538;0;0;0;0;0
38.9992;2.00E-01;0.4595;0;0;0;0;0
39.9996;0.206387;0.463;0;0;0;0;0
40.9992;0.212867;0.4712;0;0;0;0;0
41.9992;0.217841;0.4741;0;0;0;0;0
42.9993;0.225166;0.4725;0;0;0;0;0
43.9994;2.33E-01;0.4785;0;0;0;0;0
44.9993;2.39E-01;0.4889;0;0;0;0;0
45.9992;2.45E-01;0.4895;0;0;0;0;0
46.9991;2.52E-01;0.4936;0;0;0;0;0
47.9992;0.260247;0.4936;0;0;0;0;0
48.9991;2.64E-01;0.4984;0;0;0;0;0
49.9994;2.71E-01;0.4905;0;0;0;0;0
50.9991;2.77E-01;0.5038;0;0;0;0;0
51.9991;2.84E-01;0.5113;0;0;0;0;0
52.9991;0.2902099;0.512;0;0;0;0;0
53.999;0.2971001;0.5113;0;0;0;0;0
54.9993;0.304155;0.5189;0;0;0;0;0
55.999;0.311134;0.5189;0;0;0;0;0
56.999;3.17E-01;0.5142;0;0;0;0;0
57.999;3.23E-01;0.523;0;0;0;0;0
58.9989;0.328937;0.5221;0;0;0;0;0
59.999;0.335947;0.5281;0;0;0;0;0
60.9989;0.341507;0.5338;0;0;0;0;0
61.9989;3.48E-01;0.5341;0;0;0;0;0
62.9992;0.354656;0.5347;0;0;0;0;0
63.9988;0.361476;0.5373;0;0;0;0;0
64.9992;3.68E-01;0.5423;0;0;0;0;0
65.9988;0.375296;0.5407;0;0;0;0;0
66.9988;3.81E-01;0.5467;0;0;0;0;0
67.9991;0.387073;0.5452;0;0;0;0;0
68.9987;0.393219;0.5493;0;0;0;0;0
69.9989;0.400555;0.5556;0;0;0;0;0
70.9987;0.406708;0.5594;0;0;0;0;0
71.9987;0.413526;0.5543;0;0;0;0;0
72.9988;4.20E-01;0.5613;0;0;0;0;0
73.9987;0.425933;0.5508;0;0;0;0;0
74.999;4.33E-01;0.5638;0;0;0;0;0
75.9989;0.439063;0.5673;0;0;0;0;0
76.9988;0.446234;0.5733;0;0;0;0;0
77.9987;0.452586;0.5723;0;0;0;0;0
78.9987;0.459561;0.5733;0;0;0;0;0
79.9987;0.466283;0.573;0;0;0;0;0
80.9986;0.471474;0.5758;0;0;0;0;0
81.9986;0.478739;0.5771;0;0;0;0;0
82.9986;4.86E-01;0.5793;0;0;0;0;0
83.9987;4.92E-01;0.5828;0;0;0;0;0
84.9986;4.98E-01;0.5853;0;0;0;0;0
85.9987;5.05E-01;0.5881;0;0;0;0;0
86.9985;0.511506;0.5897;0;0;0;0;0
87.9988;5.18E-01;0.5878;0;0;0;0;0
88.9984;0.524638;0.5878;0;0;0;0;0
89.9987;0.531172;0.5935;0;0;0;0;0
90.9986;0.537182;0.5907;0;0;0;0;0
91.9984;5.44E-01;0.5957;0;0;0;0;0
92.9984;5.50E-01;0.5979;0;0;0;0;0
93.9985;5.58E-01;0.6001;0;0;0;0;0
94.9986;0.563344;0.602;0;0;0;0;0
95.9983;0.5702545;0.6036;0;0;0;0;0
96.9983;5.77E-01;0.6039;0;0;0;0;0
97.9986;0.58353;0.6027;0;0;0;0;0
98.9982;0.590198;0.6043;0;0;0;0;0
99.9986;5.97E-01;0.6077;0;0;0;0;0
100.9982;6.03E-01;0.6103;0;0;0;0;0
101.9984;0.609628;0.6103;0;0;0;0;0
102.9985;6.17E-01;0.608;0;0;0;0;0
103.9981;0.622587;0.6163;0;0;0;0;0
104.9983;6.29E-01;0.6156;0;0;0;0;0
105.9984;0.636461;0.6141;0;0;0;0;0
106.9981;0.643004;0.6245;0;0;0;0;0
107.9982;0.649631;0.6242;0;0;0;0;0
108.9982;0.655935;0.6175;0;0;0;0;0
109.9984;0.663243;0.6251;0;0;0;0;0
110.998;6.69E-01;0.6276;0;0;0;0;0
111.9981;6.75E-01;0.6289;0;0;0;0;0
112.9983;6.82E-01;0.628;0;0;0;0;0
113.998;0.688677;0.6346;0;0;0;0;0
114.9981;0.695535;0.6365;0;0;0;0;0
115.9982;0.70145;0.6362;0;0;0;0;0
116.998;0.70704;0.6362;0;0;0;0;0
117.9983;0.71474;0.6349;0;0;0;0;0
118.9981;0.720821;0.6384;0;0;0;0;0
119.998;0.727817;0.6412;0;0;0;0;0
120.9979;0.734291;0.6434;0;0;0;0;0
121.9979;0.740532;0.64;0;0;0;0;0
122.9982;0.747611;0.6419;0;0;0;0;0
123.9978;0.754562;0.64;0;0;0;0;0
124.9981;7.61E-01;0.6397;0;0;0;0;0
125.9978;7.67E-01;0.6476;0;0;0;0;0
126.998;7.74E-01;0.6476;0;0;0;0;0
127.9981;0.781148;0.6457;0;0;0;0;0
128.9977;0.788156;0.6343;0;0;0;0;0
129.9981;0.794144;0.6491;0;0;0;0;0
130.9977;0.800916;0.6561;0;0;0;0;0
131.9977;8.07E-01;0.6513;0;0;0;0;0
132.9978;0.814241;0.6558;0;0;0;0;0
133.9976;0.820564;0.6532;0;0;0;0;0
134.9977;0.826674;0.6567;0;0;0;0;0
135.9978;0.833388;0.6618;0;0;0;0;0
136.9978;0.840145;0.6555;0;0;0;0;0
137.9977;8.47E-01;0.6608;0;0;0;0;0
138.9975;0.853324;0.6605;0;0;0;0;0
139.9976;0.859804;0.6652;0;0;0;0;0
140.9977;8.67E-01;0.6643;0;0;0;0;0
141.9975;0.873624;0.6643;0;0;0;0;0
142.9976;0.879968;0.6627;0;0;0;0;0
143.9975;0.886272;0.6697;0;0;0;0;0
144.9976;0.893146;0.67;0;0;0;0;0
145.9974;0.899852;0.6697;0;0;0;0;0
146.9974;9.06E-01;0.6709;0;0;0;0;0
147.9975;0.913222;0.6713;0;0;0;0;0
148.9976;0.919025;0.6662;0;0;0;0;0
149.9977;0.925995;0.6735;0;0;0;0;0
150.9974;0.933265;0.6744;0;0;0;0;0
151.9974;0.939163;0.6697;0;0;0;0;0
152.9974;0.945718;0.6782;0;0;0;0;0
153.9973;0.95153;0.6735;0;0;0;0;0
154.9976;0.959124;0.6776;0;0;0;0;0
155.9975;0.965399;0.6769;0;0;0;0;0
156.9975;0.97165;0.6785;0;0;0;0;0
157.9973;0.979163;0.6836;0;0;0;0;0
158.9974;0.986037;0.6801;0;0;0;0;0
159.9973;0.991592;0.6826;0;0;0;0;0
160.9972;9.98E-01;0.6804;0;0;0;0;0
161.9972;1.00508;0.6877;0;0;0;0;0
162.9975;1.01186;0.6864;0;0;0;0;0
163.9973;1.01789;0.6864;0;0;0;0;0
164.9975;1.02513;0.6874;0;0;0;0;0
165.9973;1.03148;0.6886;0;0;0;0;0
166.9973;1.03807;0.6905;0;0;0;0;0
167.9971;1.04E+00;0.6912;0;0;0;0;0
168.997;1.0514;0.6867;0;0;0;0;0
169.9974;1.0579;0.6912;0;0;0;0;0
170.997;1.06463;0.6877;0;0;0;0;0
171.997;1.07089;0.6927;0;0;0;0;0
172.9971;1.07768;0.6962;0;0;0;0;0
173.9971;1.08E+00;0.6962;0;0;0;0;0
174.9971;1.09036;0.6912;0;0;0;0;0
175.9969;1.09851;0.6959;0;0;0;0;0
176.9969;1.10E+00;0.6823;0;0;0;0;0
177.997;1.11056;0.6994;0;0;0;0;0
178.997;1.11743;0.7022;0;0;0;0;0
179.9972;1.12417;0.6959;0;0;0;0;0
180.9968;1.13166;0.7;0;0;0;0;0
181.9968;1.13785;0.7003;0;0;0;0;0
182.9969;1.14406;0.7016;0;0;0;0;0
183.9969;1.15081;0.7032;0;0;0;0;0
184.9971;1.15628;0.6991;0;0;0;0;0
185.9968;1.16352;0.6991;0;0;0;0;0
186.997;1.16978;0.7044;0;0;0;0;0
187.9971;1.17702;0.7016;0;0;0;0;0
188.9967;1.18379;0.7016;0;0;0;0;0
189.997;1.19E+00;0.7044;0;0;0;0;0
190.9967;1.19664;0.7057;0;0;0;0;0
191.9969;1.20306;0.7095;0;0;0;0;0
192.997;1.20992;0.7095;0;0;0;0;0
193.9966;1.21649;0.7111;0;0;0;0;0
194.9967;1.22286;0.7117;0;0;0;0;0
195.9966;1.23E+00;0.7079;0;0;0;0;0
196.9968;1.23507;0.7098;0;0;0;0;0
197.9969;1.24261;0.7098;0;0;0;0;0
198.9965;1.25E+00;0.7111;0;0;0;0;0
199.9968;1.26E+00;0.7051;0;0;0;0;0
200.9965;1.26165;0.7133;0;0;0;0;0
201.9965;1.26765;0.7111;0;0;0;0;0
202.9966;1.27453;0.7117;0;0;0;0;0
203.9964;1.28058;0.7101;0;0;0;0;0
204.9965;1.28757;0.7155;0;0;0;0;0
205.9964;1.29488;0.7152;0;0;0;0;0
206.9964;1.30158;0.7136;0;0;0;0;0
207.9965;1.30675;0.7168;0;0;0;0;0
208.9963;1.31462;0.7158;0;0;0;0;0
209.9965;1.32087;0.718;0;0;0;0;0
210.9963;1.32719;0.7149;0;0;0;0;0
211.9963;1.33376;0.7202;0;0;0;0;0
212.9964;1.34036;0.7101;0;0;0;0;0
213.9964;1.34725;0.719;0;0;0;0;0
214.9964;1.35457;0.7243;0;0;0;0;0
215.9963;1.36102;0.7161;0;0;0;0;0
216.9962;1.36809;0.7149;0;0;0;0;0
217.9963;1.37437;0.7187;0;0;0;0;0
218.9962;1.38062;0.7196;0;0;0;0;0
219.9965;1.39E+00;0.7243;0;0;0;0;0
220.9962;1.39397;0.725;0;0;0;0;0
221.9964;1.40097;0.7218;0;0;0;0;0
222.9964;1.40749;0.7247;0;0;0;0;0
223.9963;1.41289;0.7193;0;0;0;0;0
224.9962;1.41927;0.7206;0;0;0;0;0
225.9963;1.4264;0.7183;0;0;0;0;0
226.9961;1.433;0.7196;0;0;0;0;0
227.9961;1.43947;0.7272;0;0;0;0;0
228.996;1.44626;0.7212;0;0;0;0;0
229.9961;1.45298;0.7212;0;0;0;0;0
230.996;1.46E+00;0.7212;0;0;0;0;0
231.996;1.46601;0.7253;0;0;0;0;0
232.9963;1.47328;0.7256;0;0;0;0;0
233.9959;1.47964;0.7218;0;0;0;0;0
234.996;1.48613;0.7231;0;0;0;0;0
235.9961;1.49267;0.7212;0;0;0;0;0
236.9961;1.49917;0.7259;0;0;0;0;0
237.996;1.5058;0.7231;0;0;0;0;0
238.9958;1.51218;0.7243;0;0;0;0;0
239.9962;1.52E+00;0.7281;0;0;0;0;0
240.996;1.52563;0.724;0;0;0;0;0
241.9958;1.53E+00;0.7269;0;0;0;0;0
242.9961;1.53815;0.725;0;0;0;0;0
243.9957;1.54516;0.7266;0;0;0;0;0
244.9961;1.5518;0.7215;0;0;0;0;0
245.9959;1.55822;0.7253;0;0;0;0;0
246.9957;1.56501;0.7174;0;0;0;0;0
247.9958;1.57181;0.7243;0;0;0;0;0
248.9957;1.57811;0.7237;0;0;0;0;0
249.9958;1.58502;0.725;0;0;0;0;0
250.9959;1.59131;0.7272;0;0;0;0;0
251.9958;1.59731;0.7266;0;0;0;0;0
252.9957;1.60389;0.7266;0;0;0;0;0
253.9956;1.61098;0.7266;0;0;0;0;0
254.9959;1.61804;0.7199;0;0;0;0;0
255.9958;1.62465;0.7183;0;0;0;0;0
256.9957;1.6298;0.7231;0;0;0;0;0
257.9956;1.63798;0.7237;0;0;0;0;0
258.9955;1.6446;0.7269;0;0;0;0;0
259.9956;1.65153;0.7256;0;0;0;0;0
260.9957;1.65794;0.7234;0;0;0;0;0
261.9957;1.66501;0.7231;0;0;0;0;0
262.9955;1.67202;0.7171;0;0;0;0;0
263.9956;1.67793;0.7259;0;0;0;0;0
264.9957;1.68483;0.7215;0;0;0;0;0
265.9956;1.69135;0.7221;0;0;0;0;0
266.9954;1.69802;0.7183;0;0;0;0;0
267.9954;1.70435;0.7161;0;0;0;0;0
268.9955;1.71121;0.7149;0;0;0;0;0
269.9954;1.71801;0.7168;0;0;0;0;0
270.9953;1.72467;0.7145;0;0;0;0;0
271.9953;1.73177;0.7142;0;0;0;0;0
272.9953;1.73761;0.7152;0;0;0;0;0
273.9952;1.74457;0.7127;0;0;0;0;0
274.9956;1.75202;0.7111;0;0;0;0;0
275.9952;1.75845;0.6959;0;0;0;0;0
276.9952;1.76493;0.7035;0;0;0;0;0
277.9953;1.77166;0.7019;0;0;0;0;0
278.9951;1.7784;0.6883;0;0;0;0;0
279.9955;1.78566;0.6788;0;0;0;0;0
280.9951;1.79338;0.6374;0;0;0;0;0

File: SL_210_NT20_90_1.csv
Time[s];Displacement[mm];Force[kN];AxStrain_1;AxStrain_2;Thickness[mm];OuterWidth[mm];InnerWidth[mm]
0;0;-0.0041;0;0;1.019;20;10.01
1.4761;-0.000686253;-0.0012;-0.000224587;0;0;0;0
2.9761;0.001143346;0.0044;-3.50878E-06;0;0;0;0
4.476;-0.000537571;0.0003;0.00068573;0;0;0;0
5.976;0.001790499;0.0863;0.000722546;0;0;0;0
7.476;0.006928453;0.2203;0.000822469;0;0;0;0
8.976;0.0153329;0.3331;0.001081871;0;0;0;0
10.476;0.0194262;0.469;0.001080118;0;0;0;0
11.9759;0.0246813;0.5894;0.000759361;0;0;0;0
13.4759;0.0293472;0.713;0.001211546;0;0;0;0
14.9759;0.0353508;0.8413;0.003040986;0;0;0;0
16.4759;0.03945445;0.9494;0.0015234;0;0;0;0
17.9759;0.0416703;1.0622;0.001257104;0;0;0;0
19.4759;0.0476756;1.1949;0.002587877;0;0;0;0
20.9758;0.0519218;1.3106;0.002696362;0;0;0;0
22.4758;0.0584761;1.4237;0.00187018;0;0;0;0
23.9758;0.0607516;1.5312;0.002771594;0;0;0;0
25.4758;0.0672463;1.6326;0.004081135;0;0;0;0
26.9757;0.0730456;1.7344;0.002619373;0;0;0;0
28.4758;0.0789534;1.7988;0.003535847;0;0;0;0
29.9757;0.0872049;1.874;0.004425282;0;0;0;0
31.4757;0.09329794;1.9338;0.005901848;0;0;0;0
32.9756;0.101465;1.985;0.005703005;0;0;0;0
34.4756;0.112931;2.0191;0.006972129;0;0;0;0
35.9756;0.117491;2.064;0.008768462;0;0;0;0
37.4756;0.126151;2.1069;0.008570188;0;0;0;0
38.9756;0.134676;2.1297;0.009552475;0;0;0;0
40.4755;0.146327;2.1379;0.01232375;0;0;0;0
41.9757;0.152601;2.1866;0.0122319;0;0;0;0
43.4755;0.165274;2.1999;0.0129716;0;0;0;0
44.9755;0.168182;2.2182;0.01459646;0;0;0;0
46.4754;0.180841;2.2403;0.0157041;0;0;0;0
47.9754;0.18986;2.2571;0.0159372;0;0;0;0
49.4755;0.198875;2.2602;0.0180898;0;0;0;0
50.9754;0.207957;2.2864;0.0181001;0;0;0;0
52.4755;0.216898;2.3057;0.0192228;0;0;0;0
53.9753;0.2236;2.3168;0.0201569;0;0;0;0
55.4753;0.232806;2.3187;0.0219211;0;0;0;0
56.9753;0.244309;2.3332;0.0213271;0;0;0;0
58.4753;0.25227;2.3572;0.0229333;0;0;0;0
59.9752;0.262692;2.368;0.0235589;0;0;0;0
61.4752;0.271529;2.3892;0.02491;0;0;0;0
62.9752;0.279778;2.41;0.0261071;0;0;0;0
64.4752;0.290257;2.4015;0.02640958;0;0;0;0
65.9752;0.302905;2.4179;0.0287;0;0;0;0
67.4751;0.308064;2.4356;0.0283845;0;0;0;0
68.9751;0.318932;2.4372;0.0294242;0;0;0;0
70.4751;0.328486;2.4438;0.0310345;0;0;0;0
71.9751;0.336306;2.4783;0.03161256;0;0;0;0
73.475;0.349184;2.4609;0.0332244;0;0;0;0
74.975;0.356627;2.4795;0.032598;0;0;0;0
76.475;0.366433;2.4976;0.0342251;0;0;0;0
77.975;0.373789;2.5165;0.0339097;0;0;0;0
79.4751;0.38477;2.526;0.0353688;0;0;0;0
80.9749;0.395512;2.5377;0.0363184;0;0;0;0
82.4751;0.403923;2.5503;0.0360629;0;0;0;0
83.975;0.412534;2.5456;0.0370642;0;0;0;0
85.4749;0.422227;2.5803;0.0389305;0;0;0;0
86.9748;0.433007;2.5658;0.038912;0;0;0;0
88.475;0.440573;2.563;0.0384174;0;0;0;0
89.9748;0.450997;2.5873;0.039526;0;0;0;0
91.4749;0.455565;2.6003;0.0401211;0;0;0;0
92.9747;0.47025;2.6101;0.0414635;0;0;0;0
94.4747;0.478392;2.6022;0.0411621;0;0;0;0
95.9748;0.487671;2.6315;0.04197;0;0;0;0
97.4748;0.497748;2.6281;0.0421886;0;0;0;0
98.9747;0.508412;2.6436;0.0427855;0;0;0;0
100.4746;0.517178;2.6442;0.0433451;0;0;0;0
101.9746;0.526563;2.6312;0.0440219;0;0;0;0
103.4746;0.538062;2.6764;0.0455016;0;0;0;0
104.9747;0.547792;2.6831;0.0461719;0;0;0;0
106.4746;0.556855;2.6726;0.0465253;0;0;0;0
107.9747;0.564186;2.696;0.0463478;0;0;0;0
109.4745;0.574705;2.7143;0.0471648;0;0;0;0
110.9745;0.585572;2.7023;0.0475061;0;0;0;0
112.4746;0.5952431;2.7185;0.0498122;0;0;0;0
113.9746;0.605006;2.726;0.0505547;0;0;0;0
115.4744;0.612971;2.733;0.0502494;0;0;0;0
116.9744;0.623998;2.7368;0.05073147;0;0;0;0
118.4745;0.63354;2.7399;0.0515866;0;0;0;0
119.9743;0.641868;2.7592;0.05341604;0;0;0;0
121.4743;0.652352;2.775;0.0525725;0;0;0;0
122.9743;0.660656;2.7687;0.0534759;0;0;0;0
124.4743;0.67443;2.7804;0.0543171;0;0;0;0
125.9743;0.680017;2.7839;0.0553434;0;0;0;0
127.4742;0.691054;2.7987;0.0562294;0;0;0;0
128.9742;0.696282;2.7883;0.057171;0;0;0;0
130.4743;0.709322;2.8183;0.0568876;0;0;0;0
131.9742;0.717816;2.8196;0.0582772;0;0;0;0
133.4741;0.728419;2.8237;0.0586263;0;0;0;0
134.9743;0.737475;2.8259;0.06022;0;0;0;0
136.4741;0.7446593;2.8325;0.0611232;0;0;0;0
137.9741;0.756719;2.842;0.062403;0;0;0;0
139.4741;0.767022;2.843;0.0625514;0;0;0;0
140.974;0.776028;2.8487;0.0639627;0;0;0;0
142.474;0.784309;2.866;0.0634903;0;0;0;0
143.974;0.795724;2.8584;0.065114;0;0;0;0
145.474;0.801602;2.8736;0.0655594;0;0;0;0
146.9739;0.813541;2.891;0.0658978;0;0;0;0
148.4741;0.82325;2.8825;0.0681553;0;0;0;0
149.974;0.831394;2.8945;0.0681176;0;0;0;0
151.474;0.843513;2.9024;0.0695064;0;0;0;0
152.9738;0.851677;2.9147;0.0702753;0;0;0;0
154.474;0.864156;2.9141;0.071006;0;0;0;0
155.9738;0.870146;2.9144;0.0720856;0;0;0;0
157.4738;0.883115;2.9248;0.0718685;0;0;0;0
158.9738;0.892845;2.94;0.0731053;0;0;0;0
160.4739;0.902069;2.9454;0.0741827;0;0;0;0
161.9737;0.912477;2.9431;0.07440254;0;0;0;0
163.4737;0.918989;2.9425;0.0745328;0;0;0;0
164.9737;0.929572;2.9536;0.0758444;0;0;0;0
166.4739;0.939754;2.9577;0.07682458;0;0;0;0
167.9737;0.94928;2.9552;0.0777112;0;0;0;0
169.4736;0.958236;2.9776;0.0784706;0;0;0;0
170.9736;0.968554;2.9536;0.07914676;0;0;0;0
172.4735;0.979537;2.9836;0.0810139;0;0;0;0
173.9735;0.989093;2.9855;0.082107;0;0;0;0
175.4735;0.9993364;2.9978;0.0835523;0;0;0;0
176.9735;1.00394;2.9947;0.0832893;0;0;0;0
178.4735;1.01769;2.9918;0.0840251;0;0;0;0
179.9734;1.02499;3.0007;0.0860248;0;0;0;0
181.4734;1.03861;2.9798;0.0867795;0;0;0;0
182.9736;1.04784;3.0076;0.0872362;0;0;0;0
184.4734;1.05752;3.025;0.0890321;0;0;0;0
185.9733;1.06504;3.0184;0.0902239;0;0;0;0
187.4733;1.07453;3.0285;0.0909931;0;0;0;0
188.9734;1.08621;3.0335;0.0912509;0;0;0;0
190.4733;1.0951;3.0203;0.0925104;0;0;0;0
191.9733;1.10586;3.03;0.0936261;0;0;0;0
193.4734;1.11246;3.0297;0.0948699;0;0;0;0
194.9734;1.12564;3.0465;0.0964515;0;0;0;0
196.4732;1.13529;3.0177;0.09612484;0;0;0;0
197.9732;1.14582;3.0487;0.0984742;0;0;0;0
199.4732;1.15353;3.0389;0.0995166;0;0;0;0
200.9731;1.16222;3.0626;0.100398;0;0;0;0
202.4733;1.17557;3.0575;0.100656;0;0;0;0
203.9731;1.18356;3.0509;0.102748;0;0;0;0
205.4731;1.19348;3.0496;0.104485;0;0;0;0
206.973;1.20301;3.049;0.106053;0;0;0;0
208.4731;1.21403;3.0721;0.107565;0;0;0;0
209.973;1.22415;3.0787;0.108415;0;0;0;0
211.473;1.23284;3.0686;0.109182;0;0;0;0
212.973;1.24716;3.0667;0.110673;0;0;0;0
214.4729;1.25196;3.0598;0.111199;0;0;0;0
215.9729;1.26434;3.08;0.113687;0;0;0;0
217.4729;1.27291;3.0876;0.114304;0;0;0;0
218.9729;1.28221;3.0702;0.116085;0;0;0;0
220.473;1.29069;3.0806;0.117777;0;0;0;0
221.9728;1.30193;3.0708;0.119069;0;0;0;0
223.473;1.31083;3.0762;0.120802;0;0;0;0
224.973;1.3214;3.0705;0.123167;0;0;0;0
226.4728;1.3347;3.0923;0.124088;0;0;0;0
227.9727;1.3407;3.0733;0.125765;0;0;0;0
229.473;1.35247;3.0901;0.128216;0;0;0;0
230.9729;1.35969;3.0895;0.128501;0;0;0;0
232.4729;1.37162;3.0822;0.129058;0;0;0;0
233.9726;1.38271;3.0863;0.131551;0;0;0;0
235.4726;1.39129;3.08;0.134244;0;0;0;0
236.9726;1.4022;3.0784;0.135974;0;0;0;0
238.4726;1.40981;3.0876;0.137985;0;0;0;0
239.9727;1.42142;3.0648;0.140322;0;0;0;0
241.4725;1.43056;3.0781;0.141701;0;0;0;0
242.9725;1.43922;3.0724;0.143725;0;0;0;0
244.4725;1.44999;3.0673;0.145824;0;0;0;0
245.9725;1.46148;3.0923;0.148588;0;0;0;0
247.4724;1.46689;3.0635;0.149927;0;0;0;0
248.9724;1.48091;3.0667;0.151558;0;0;0;0
250.4724;1.48913;3.0661;0.154641;0;0;0;0
251.9725;1.50038;3.0711;0.156165;0;0;0;0
253.4725;1.51185;3.0705;0.159811;0;0;0;0
254.9723;1.51751;3.0556;0.162508;0;0;0;0
256.4724;1.52983;3.0601;0.164976;0;0;0;0
257.9723;1.53844;3.0601;0.167111;0;0;0;0
259.4723;1.55351;3.038;0.170128;0;0;0;0
260.9722;1.56063;3.0424;0.173389;0;0;0;0
262.4722;1.56838;3.0376;0.176351;0;0;0;0
263.9722;1.58144;3.0231;0.17813;0;0;0;0
265.4723;1.59079;3.0361;0.183793;0;0;0;0
266.9723;1.60381;3.0291;0.186992;0;0;0;0
268.4723;1.61129;2.9956;0.19249;0;0;0;0
269.9721;1.6206;3.0215;0.194441;0;0;0;0
271.4721;1.63802;3.0003;0.197007;0;0;0;0
272.972;1.63906;2.9893;0.197213;0;0;0;0
274.472;1.65252;2.9988;0.201212;0;0;0;0
275.9722;1.66076;2.9785;0.208058;0;0;0;0
277.472;1.67409;3.0019;0.213568;0;0;0;0
278.972;1.68015;2.9779;0.216767;0;0;0;0
280.4719;1.6943;2.9668;0.222654;0;0;0;0
281.9719;1.6999;2.9612;0.227844;0;0;0;0
283.4719;1.71111;2.9454;0.232406;0;0;0;0
284.9719;1.72419;2.9577;0.236318;0;0;0;0
286.4718;1.73419;2.9406;0.241223;0;0;0;0
287.972;1.74258;2.9387;0.246749;0;0;0;0
289.472;1.75288;2.9125;0.250707;0;0;0;0
290.9719;1.76543;2.9261;0.255057;0;0;0;0
292.4717;1.77533;2.9033;0.262198;0;0;0;0
293.9717;1.78448;2.8853;0.267553;0;0;0;0
295.4717;1.7959;2.8749;0.271986;0;0;0;0
296.9717;1.80529;2.8537;0.281084;0;0;0;0
298.4717;1.81505;2.8727;0.283719;0;0;0;0
299.9717;1.82646;2.8423;0.294317;0;0;0;0
301.4716;1.83612;2.8297;0.297098;0;0;0;0
302.9716;1.84697;2.8246;0.300193;0;0;0;0
304.4716;1.85733;2.7946;0.306248;0;0;0;0
305.9716;1.87025;2.8085;0.312341;0;0;0;0
307.4715;1.877768;2.7614;0.32008;0;0;0;0
308.9717;1.88799;2.739;0.324364;0;0;0;0
310.4717;1.89993;2.7365;0.332678;0;0;0;0
311.9715;1.90876;2.6963;0.339936;0;0;0;0
313.4714;1.92175;2.6698;0.345509;0;0;0;0
314.9714;1.93203;2.6341;0.355808;0;0;0;0
315.9714;1.94691;2.3784;0.368516;0;0;0;0