Folder: ethz/LAB_DATA/AA7020-T6_results/DATA (part 3)

File: SL_210_SH2_90_1.csv
Time[s];Displacement[mm];Force[kN];AxStrain_1;AxStrain_2;Thickness[mm];Width[mm];Inner width
0;0;-0.0003;0;0;1.022;20;0
0.75;8.86E-06;0.0007;0;0;0;0;0
1.75;0.000914084;0.0019;0;0;0;0;0
2.7501;0.000643166;0.0054;0;0;0;0;0
3.7502;4.26E-03;0.0029;0;0;0;0;0
4.7499;0.001337635;0.0051;0;0;0;0;0
5.7499;0.00586325;0.0269;0;0;0;0;0
6.7501;0.0112632;0.0496;0;0;0;0;0
7.7502;0.0171468;0.0759;0;0;0;0;0
8.7501;0.0217806;0.0967;0;0;0;0;0
9.7498;0.0272883;0.1176;0;0;0;0;0
10.7498;0.0331169;0.1425;0;0;0;0;0
11.7498;0.0383226;0.1656;0;0;0;0;0
12.7499;0.04503775;0.1877;0;0;0;0;0
13.7498;0.049788;0.207;0;0;0;0;0
14.7499;0.0556289;0.2222;0;0;0;0;0
15.75;0.0612616;0.2449;0;0;0;0;0
16.75;0.0667103;0.2557;0;0;0;0;0
17.7498;0.0727775;0.2765;0;0;0;0;0
18.7497;0.0791022;0.2904;0;0;0;0;0
19.7497;0.0856491;0.3037;0;0;0;0;0
20.7497;0.0910815;0.3164;0;0;0;0;0
21.7497;0.0973815;0.3322;0;0;0;0;0
22.7497;1.03E-01;0.3388;0;0;0;0;0
23.7496;0.10938;0.3397;0;0;0;0;0
24.7496;1.15E-01;0.3502;0;0;0;0;0
25.7496;0.121735;0.3581;0;0;0;0;0
26.7496;0.128967;0.3634;0;0;0;0;0
27.7496;1.35E-01;0.3761;0;0;0;0;0
28.7497;0.141269;0.3792;0;0;0;0;0
29.7496;1.48E-01;0.3865;0;0;0;0;0
30.7495;0.153089;0.39;0;0;0;0;0
31.7495;0.159371;0.3887;0;0;0;0;0
32.7495;0.16533;0.3985;0;0;0;0;0
33.7495;1.73E-01;0.4109;0;0;0;0;0
34.7494;1.79E-01;0.4112;0;0;0;0;0
35.7494;1.85E-01;0.4124;0;0;0;0;0
36.7494;1.92E-01;0.42;0;0;0;0;0
37.7494;0.198621;0.4251;0;0;0;0;0
38.7494;2.04E-01;0.4276;0;0;0;0;0
39.7493;0.211315;0.4336;0;0;0;0;0
40.7493;0.217489;0.4339;0;0;0;0;0
41.7493;0.223826;0.439;0;0;0;0;0
42.7494;0.230625;0.4466;0;0;0;0;0
43.7493;2.37E-01;0.4443;0;0;0;0;0
44.7494;2.43E-01;0.4519;0;0;0;0;0
45.7492;2.51E-01;0.45;0;0;0;0;0
46.7492;2.57E-01;0.4627;0;0;0;0;0
47.7495;0.263116;0.4592;0;0;0;0;0
48.7494;2.70E-01;0.4662;0;0;0;0;0
49.7491;2.75E-01;0.4706;0;0;0;0;0
50.7492;2.82E-01;0.4658;0;0;0;0;0
51.7494;2.89E-01;0.4718;0;0;0;0;0
52.7494;0.294901;0.4753;0;0;0;0;0
53.7495;0.301825;0.4829;0;0;0;0;0
54.7492;0.307989;0.4861;0;0;0;0;0
55.7491;0.31374;0.4902;0;0;0;0;0
56.749;3.20E-01;0.487;0;0;0;0;0
57.7493;3.27E-01;0.4949;0;0;0;0;0
58.749;0.333549;0.499;0;0;0;0;0
59.749;0.340132;0.4949;0;0;0;0;0
60.749;0.347257;0.4974;0;0;0;0;0
61.749;3.54E-01;0.5053;0;0;0;0;0
62.7492;0.36025;0.5107;0;0;0;0;0
63.7489;0.366533;0.5129;0;0;0;0;0
64.7489;3.73E-01;0.5098;0;0;0;0;0
65.7491;0.379519;0.5142;0;0;0;0;0
66.7489;3.86E-01;0.518;0;0;0;0;0
67.7489;0.392161;0.5186;0;0;0;0;0
68.7489;0.399507;0.5208;0;0;0;0;0
69.7488;0.405133;0.5281;0;0;0;0;0
70.7488;0.411157;0.5265;0;0;0;0;0
71.7488;0.418807;0.5265;0;0;0;0;0
72.7488;4.25E-01;0.5344;0;0;0;0;0
73.749;0.432047;0.5303;0;0;0;0;0
74.7487;4.39E-01;0.5366;0;0;0;0;0
75.7487;0.445515;0.5439;0;0;0;0;0
76.7487;0.451293;0.5392;0;0;0;0;0
77.7488;0.45788;0.5373;0;0;0;0;0
78.7489;0.464327;0.5433;0;0;0;0;0
79.7486;0.470306;0.5458;0;0;0;0;0
80.7489;0.477421;0.5499;0;0;0;0;0
81.7486;0.484214;0.5505;0;0;0;0;0
82.7487;4.90E-01;0.5496;0;0;0;0;0
83.7488;4.97E-01;0.561;0;0;0;0;0
84.7485;5.04E-01;0.5619;0;0;0;0;0
85.7488;5.10E-01;0.561;0;0;0;0;0
86.7485;0.516473;0.5638;0;0;0;0;0
87.7488;5.23E-01;0.5613;0;0;0;0;0
88.7485;0.529403;0.5685;0;0;0;0;0
89.7486;0.536692;0.5644;0;0;0;0;0
90.7484;0.542761;0.5704;0;0;0;0;0
91.7484;5.49E-01;0.5698;0;0;0;0;0
92.7485;5.56E-01;0.5739;0;0;0;0;0
93.7486;5.62E-01;0.5711;0;0;0;0;0
94.7484;0.569284;0.5723;0;0;0;0;0
95.7484;0.576063;0.5802;0;0;0;0;0
96.7484;5.81E-01;0.5736;0;0;0;0;0
97.7486;0.588317;0.578;0;0;0;0;0
98.7483;0.595599;0.5787;0;0;0;0;0
99.7483;6.02E-01;0.5802;0;0;0;0;0
100.7483;6.09E-01;0.5837;0;0;0;0;0
101.7483;0.615118;0.5812;0;0;0;0;0
102.7483;6.22E-01;0.5872;0;0;0;0;0
103.7485;0.628452;0.5894;0;0;0;0;0
104.7482;6.35E-01;0.5922;0;0;0;0;0
105.7482;0.64062;0.5878;0;0;0;0;0
106.7482;0.648429;0.5935;0;0;0;0;0
107.7485;0.65407;0.5872;0;0;0;0;0
108.7482;0.661141;0.5935;0;0;0;0;0
109.7481;0.666976;0.5935;0;0;0;0;0
110.7481;6.74E-01;0.5986;0;0;0;0;0
111.7483;6.81E-01;0.5929;0;0;0;0;0
112.7482;6.87E-01;0.5979;0;0;0;0;0
113.7481;0.693664;0.5979;0;0;0;0;0
114.7483;0.699803;0.5989;0;0;0;0;0
115.748;0.706266;0.5957;0;0;0;0;0
116.748;0.713428;0.5998;0;0;0;0;0
117.7483;0.720616;0.6008;0;0;0;0;0
118.748;0.726865;0.6014;0;0;0;0;0
119.7479;0.730978;0.6033;0;0;0;0;0
120.7479;0.739787;0.6036;0;0;0;0;0
121.7479;0.746541;0.6027;0;0;0;0;0
122.748;0.753032;0.6046;0;0;0;0;0
123.7479;0.760107;0.6039;0;0;0;0;0
124.7478;7.67E-01;0.6014;0;0;0;0;0
125.7478;7.73E-01;0.6062;0;0;0;0;0
126.7478;7.80E-01;0.6103;0;0;0;0;0
127.7479;0.7864699;0.6087;0;0;0;0;0
128.7478;0.792817;0.6074;0;0;0;0;0
129.7478;0.799068;0.6093;0;0;0;0;0
130.7478;0.806368;0.6087;0;0;0;0;0
131.7477;8.13E-01;0.6128;0;0;0;0;0
132.7478;0.820882;0.608;0;0;0;0;0
133.7477;0.826162;0.6125;0;0;0;0;0
134.7477;0.833592;0.608;0;0;0;0;0
135.7479;0.840882;0.6062;0;0;0;0;0
136.7477;0.847039;0.6112;0;0;0;0;0
137.7477;8.53E-01;0.6109;0;0;0;0;0
138.7476;0.85972;0.6109;0;0;0;0;0
139.7478;0.86684;0.6087;0;0;0;0;0
140.7476;8.73E-01;0.6103;0;0;0;0;0
141.7476;0.879608;0.6103;0;0;0;0;0
142.7479;0.886631;0.6122;0;0;0;0;0
143.7475;0.892887;0.6109;0;0;0;0;0
144.7476;0.899365;0.6115;0;0;0;0;0
145.7475;0.906837;0.6062;0;0;0;0;0
146.7475;9.13E-01;0.6109;0;0;0;0;0
147.7476;0.919671;0.6125;0;0;0;0;0
148.7475;0.926146;0.6049;0;0;0;0;0
149.7474;0.932338;0.6103;0;0;0;0;0
150.7474;0.938923;0.6115;0;0;0;0;0
151.7474;0.943688;0.6125;0;0;0;0;0
152.7474;0.952668;0.6052;0;0;0;0;0
153.7474;0.959599;0.6099;0;0;0;0;0
154.7473;0.966344;0.6096;0;0;0;0;0
155.7476;0.973241;0.6087;0;0;0;0;0
156.7473;0.979207;0.6093;0;0;0;0;0
157.7474;0.985731;0.6065;0;0;0;0;0
158.7473;0.993335;0.6125;0;0;0;0;0
159.7472;0.999291;0.6118;0;0;0;0;0
160.7472;1.01E+00;0.609;0;0;0;0;0
161.7472;1.01311;0.6046;0;0;0;0;0
162.7475;1.02014;0.6084;0;0;0;0;0
163.7472;1.02722;0.6043;0;0;0;0;0
164.7473;1.03386;0.6055;0;0;0;0;0
165.7472;1.04027;0.608;0;0;0;0;0
166.7471;1.04657;0.6033;0;0;0;0;0
167.7472;1.05E+00;0.6052;0;0;0;0;0
168.7471;1.0599;0.6062;0;0;0;0;0
169.7471;1.06741;0.6046;0;0;0;0;0
170.7471;1.07275;0.6039;0;0;0;0;0
171.747;1.07986;0.5998;0;0;0;0;0
172.7473;1.0876;0.6011;0;0;0;0;0
173.747;1.09E+00;0.5983;0;0;0;0;0
174.747;1.10001;0.602;0;0;0;0;0
175.747;1.1073;0.5979;0;0;0;0;0
176.747;1.11E+00;0.5998;0;0;0;0;0
177.747;1.12012;0.6017;0;0;0;0;0
178.7469;1.1263;0.603;0;0;0;0;0
179.7469;1.13292;0.5948;0;0;0;0;0
180.7469;1.13981;0.5922;0;0;0;0;0
181.7469;1.14695;0.5964;0;0;0;0;0
182.7469;1.15302;0.5945;0;0;0;0;0
183.7468;1.15898;0.5929;0;0;0;0;0
184.7468;1.16688;0.5932;0;0;0;0;0
185.7468;1.17264;0.591;0;0;0;0;0
186.7468;1.17996;0.5929;0;0;0;0;0
187.7471;1.18543;0.5894;0;0;0;0;0
188.7468;1.19341;0.5951;0;0;0;0;0
189.7469;1.20E+00;0.5875;0;0;0;0;0
190.7467;1.20661;0.59;0;0;0;0;0
191.7469;1.21361;0.5885;0;0;0;0;0
192.7468;1.2207;0.5875;0;0;0;0;0
193.747;1.22727;0.5831;0;0;0;0;0
194.7466;1.23391;0.5834;0;0;0;0;0
195.7466;1.24E+00;0.5825;0;0;0;0;0
196.7466;1.247;0.5828;0;0;0;0;0
197.7467;1.2532;0.5799;0;0;0;0;0
198.7466;1.26E+00;0.5793;0;0;0;0;0
199.7465;1.27E+00;0.5758;0;0;0;0;0
200.7466;1.27325;0.5746;0;0;0;0;0
201.7465;1.28105;0.573;0;0;0;0;0
202.7466;1.28777;0.5708;0;0;0;0;0
203.7465;1.29408;0.5708;0;0;0;0;0
204.7465;1.30113;0.5673;0;0;0;0;0
205.7467;1.30778;0.5663;0;0;0;0;0
206.7465;1.31453;0.5644;0;0;0;0;0
207.7465;1.32048;0.5622;0;0;0;0;0
208.7466;1.32762;0.5603;0;0;0;0;0
209.7464;1.33537;0.5556;0;0;0;0;0
210.7466;1.34221;0.548;0;0;0;0;0
211.7464;1.34849;0.542;0;0;0;0;0
212.7464;1.35587;0.5373;0;0;0;0;0
213.7463;1.36339;0.5313;0;0;0;0;0
214.7463;1.37002;0.5205;0;0;0;0;0
215.7463;1.37765;0.5101;0;0;0;0;0
216.7465;1.38549;0.4876;0;0;0;0;0
217.7466;1.39298;0.4712;0;0;0;0;0
218.7465;1.40046;0.4399;0;0;0;0;0
219.7464;1.41E+00;0.4058;0;0;0;0;0
220.7462;1.41841;0.384;0;0;0;0;0
221.7462;1.42465;0.3616;0;0;0;0;0
222.7462;1.43189;0.3448;0;0;0;0;0
223.7462;1.44017;0.3347;0;0;0;0;0
224.7461;1.44703;0.3148;0;0;0;0;0
225.7461;1.45436;0.2993;0;0;0;0;0
226.7461;1.46219;0.2822;0;0;0;0;0
227.7464;1.46883;0.2712;0;0;0;0;0
228.7461;1.47624;0.2569;0;0;0;0;0
229.746;1.48422;0.2459;0;0;0;0;0
230.7461;1.49E+00;0.2206;0;0;0;0;0
231.746;1.49922;0.1934;0;0;0;0;0
232.7463;1.50764;0.1549;0;0;0;0;0
233.746;1.51495;0.1264;0;0;0;0;0
234.7459;1.52346;0.1106;0;0;0;0;0
235.7459;1.53274;0.0891;0;0;0;0;0
236.7462;1.53844;0.0692;0;0;0;0;0
237.746;1.54588;0.0496;0;0;0;0;0
238.7459;1.55383;0.0458;0;0;0;0;0
239.7459;1.56E+00;0.0417;0;0;0;0;0
240.7459;1.56783;0.0379;0;0;0;0;0
241.7459;1.57E+00;0.0338;0;0;0;0;0
242.7459;1.58107;0.0351;0;0;0;0;0
243.746;1.58799;0.0263;0;0;0;0;0
244.7458;1.59504;0.0266;0;0;0;0;0
245.7458;1.6016;0.0196;0;0;0;0;0
246.7458;1.60871;0.0244;0;0;0;0;0
247.7458;1.61534;0.0171;0;0;0;0;0
248.746;1.62198;0.0184;0;0;0;0;0
249.7458;1.62836;0.0168;0;0;0;0;0
250.7457;1.63477;0.0161;0;0;0;0;0
251.7457;1.64246;0.0095;0;0;0;0;0
252.7457;1.64984;0.0114;0;0;0;0;0
253.7456;1.65538;0.0108;0;0;0;0;0
254.7456;1.66212;0.0095;0;0;0;0;0
255.7456;1.66989;0.0089;0;0;0;0;0
256.7456;1.67613;0.007;0;0;0;0;0
257.7456;1.68295;0.0032;0;0;0;0;0
258.7456;1.68885;0.0054;0;0;0;0;0
259.7455;1.69513;0;0;0;0;0;0
260.7458;1.70242;0.0076;0;0;0;0;0
261.7457;1.70973;0.0025;0;0;0;0;0
262.7456;1.71629;0.0035;0;0;0;0;0
263.7457;1.72254;-0.0006;0;0;0;0;0
264.7456;1.72964;0.006;0;0;0;0;0
265.7454;1.73653;0.0086;0;0;0;0;0
266.7454;1.74321;0.0019;0;0;0;0;0
267.7455;1.74967;0.0022;0;0;0;0;0
268.7456;1.75697;0.0051;0;0;0;0;0
269.7453;1.7628;0.0013;0;0;0;0;0
270.7456;1.76931;0.0007;0;0;0;0;0
271.2454;1.77286;0.0025;0;0;0;0;0

File: SL_240_NT20_90_2.csv
Time[s];Displacement[mm];Force[kN];AxStrain_1;AxStrain_2;Thickness[mm];OuterWidth[mm];InnerWidth[mm]
0;0;-0.0019;0;0;1.02;20;9.98
1.4761;-0.003327817;-0.0006;-5.96509E-05;0;0;0;0
2.976;0.000208471;-0.0035;-0.000103514;0;0;0;0
4.4761;-0.002285288;-0.0012;0.000543712;0;0;0;0
5.9759;-0.001797337;-0.0012;2.80698E-05;0;0;0;0
7.4759;-0.00060297;-0.0003;0.000675211;0;0;0;0
8.9759;-0.001581152;-0.0114;9.9995E-05;0;0;0;0
10.4758;-0.003664983;0;-0.000261438;0;0;0;0
11.9758;-0.002668566;0.0076;0.000264877;0;0;0;0
13.4759;-0.002090669;-0.0079;0.000587547;0;0;0;0
14.9758;-0.001602718;0.0048;-8.59686E-05;0;0;0;0
16.4759;0.000237751;0.0579;0.000117537;0;0;0;0
17.9759;0.000148332;0.1906;1.89E-04;0;0;0;0
19.4757;0.007878932;0.3239;0.000678717;0;0;0;0
20.9757;0.013976;0.4415;0.001018779;0;0;0;0
22.4757;0.0185348;0.5727;0.000789162;0;0;0;0
23.9756;0.0228157;0.6886;0.000827728;0;0;0;0
25.4756;0.0277801;0.8024;0.001817645;0;0;0;0
26.9756;0.0321716;0.9389;0.001446322;0;0;0;0
28.4756;0.03842735;1.059;0.00159697;0;0;0;0
29.9755;0.044989;1.1469;0.002612374;0;0;0;0
31.4755;0.0501268;1.2799;0.001665279;0;0;0;0
32.9755;0.05452536;1.3959;0.001994501;0;0;0;0
34.4755;0.0592536;1.4929;0.002741852;0;0;0;0
35.9755;0.0663358;1.5868;0.003750851;0;0;0;0
37.4754;0.0681507;1.6914;0.002542379;0;0;0;0
38.9754;0.0736735;1.7849;0.003254348;0;0;0;0
40.4754;0.0843372;1.8529;0.004641842;0;0;0;0
41.9754;0.0898818;1.9249;0.004865338;0;0;0;0
43.4754;0.0977407;1.9913;0.004484666;0;0;0;0
44.9753;0.10586;2.0302;0.005027691;0;0;0;0
46.4753;0.11507;2.0712;0.007163753;0;0;0;0
47.9753;0.120754;2.1436;0.006240139;0;0;0;0
49.4753;0.132186;2.1566;0.006620144;0;0;0;0
50.9752;0.139915;2.2027;0.009036243;0;0;0;0
52.4752;0.148759;2.2283;0.009364785;0;0;0;0
53.9752;0.155206;2.2596;0.008389273;0;0;0;0
55.4752;0.166109;2.2947;0.0109625;0;0;0;0
56.9753;0.173476;2.313;0.0112713;0;0;0;0
58.4751;0.180515;2.3503;0.0105581;0;0;0;0
59.9751;0.191029;2.3673;0.01291103;0;0;0;0
61.4751;0.19936;2.3904;0.0137385;0;0;0;0
62.975;0.208773;2.4151;0.014043;0;0;0;0
64.475;0.217196;2.4179;0.0147279;0;0;0;0
65.9752;0.228007;2.4562;0.0162704;0;0;0;0
67.475;0.235836;2.4732;0.0163861;0;0;0;0
68.975;0.244812;2.4944;0.0173986;0;0;0;0
70.4749;0.253287;2.501;0.0178916;0;0;0;0
71.9749;0.263445;2.5326;0.0193605;0;0;0;0
73.4749;0.272577;2.5339;0.0203391;0;0;0;0
74.9749;0.282466;2.5737;0.0209423;0;0;0;0
76.4749;0.293084;2.5699;0.0226537;0;0;0;0
77.9748;0.301366;2.5778;0.0239307;0;0;0;0
79.4748;0.309853;2.592;0.0238364;0;0;0;0
80.9748;0.31895;2.6022;0.0249134;0;0;0;0
82.4748;0.328512;2.6385;0.0268503;0;0;0;0
83.9747;0.341429;2.6477;0.0269135;0;0;0;0
85.4747;0.348566;2.6492;0.0282498;0;0;0;0
86.9747;0.355554;2.6733;0.0297836;0;0;0;0
88.4747;0.367864;2.6679;0.030861;0;0;0;0
89.9747;0.377122;2.6758;0.0317502;0;0;0;0
91.4746;0.386722;2.7004;0.0334297;0;0;0;0
92.9746;0.39721;2.6853;0.0350962;0;0;0;0
94.4746;0.404983;2.7109;0.0365096;0;0;0;0
95.9746;0.415919;2.7042;0.03752393;0;0;0;0
97.4745;0.426938;2.7267;0.0397418;0;0;0;0
98.9745;0.436264;2.714;0.0416032;0;0;0;0
100.4745;0.446728;2.727;0.0429603;0;0;0;0
101.9745;0.45464;2.7501;0.044804;0;0;0;0
103.4745;0.46584;2.7235;0.0465906;0;0;0;0
104.9744;0.474421;2.7267;0.04900735;0;0;0;0
106.4744;0.487066;2.726;0.0507665;0;0;0;0
107.9744;0.49469;2.7264;0.05271728;0;0;0;0
109.4744;0.50534;2.7412;0.0552505;0;0;0;0
110.9743;0.515934;2.7308;0.0571113;0;0;0;0
112.4743;0.523433;2.7425;0.0588695;0;0;0;0
113.9743;0.534385;2.7128;0.0615637;0;0;0;0
115.4743;0.543083;2.7456;0.0634129;0;0;0;0
116.9742;0.555329;2.7339;0.0658896;0;0;0;0
118.4742;0.56521;2.7482;0.0680144;0;0;0;0
119.9742;0.575178;2.7267;0.0710273;0;0;0;0
121.4742;0.585076;2.7314;0.07405559;0;0;0;0
122.9742;0.595163;2.7314;0.0769123;0;0;0;0
124.4741;0.606216;2.715;0.079398;0;0;0;0
125.9741;0.61415;2.7137;0.081913;0;0;0;0
127.4741;0.626054;2.7188;0.0849344;0;0;0;0
128.9741;0.635494;2.6891;0.08867257;0;0;0;0
130.4741;0.647509;2.6916;0.0915647;0;0;0;0
131.974;0.6568;2.696;0.0948651;0;0;0;0
133.474;0.6678046;2.6821;0.0979781;0;0;0;0
134.974;0.677646;2.6929;0.101246;0;0;0;0
136.474;0.687731;2.6796;0.104295;0;0;0;0
137.9739;0.698964;2.6767;0.107259;0;0;0;0
139.4739;0.708195;2.6552;0.111537;0;0;0;0
140.9739;0.719222;2.6461;0.114442;0;0;0;0
142.4739;0.73021;2.6401;0.11855;0;0;0;0
143.9738;0.737727;2.63;0.123057;0;0;0;0
145.4738;0.750721;2.6394;0.127679;0;0;0;0
146.9738;0.759705;2.6287;0.132031;0;0;0;0
148.4738;0.770008;2.6082;0.137038;0;0;0;0
149.9738;0.7815595;2.6135;0.1415;0;0;0;0
151.4737;0.790851;2.5943;0.146906;0;0;0;0
152.9737;0.802818;2.5712;0.150805;0;0;0;0
154.4737;0.811996;2.5718;0.155276;0;0;0;0
155.9736;0.822887;2.5778;0.160568;0;0;0;0
157.4737;0.833393;2.5664;0.165993;0;0;0;0
158.9736;0.843849;2.5506;0.170505;0;0;0;0
160.4736;0.855474;2.5418;0.176761;0;0;0;0
161.9736;0.86383;2.5171;0.182053;0;0;0;0
163.4735;0.874538;2.4985;0.186918;0;0;0;0
164.9735;0.883905;2.4862;0.191846;0;0;0;0
166.4735;0.894652;2.5127;0.197171;0;0;0;0
167.9735;0.907234;2.4833;0.203816;0;0;0;0
169.4735;0.917042;2.4789;0.208703;0;0;0;0
170.9734;0.92711;2.4625;0.212984;0;0;0;0
172.4734;0.936904;2.4397;0.219547;0;0;0;0
173.9734;0.947709;2.4204;0.226425;0;0;0;0
175.4734;0.95875;2.4258;0.231987;0;0;0;0
176.9733;0.969274;2.3999;0.237615;0;0;0;0
178.4733;0.982281;2.4053;0.243269;0;0;0;0
179.9733;0.989288;2.4012;0.249533;0;0;0;0
181.4733;1.00077;2.3553;0.255247;0;0;0;0
182.9732;1.01332;2.3563;0.261526;0;0;0;0
184.4732;1.02227;2.3538;0.268593;0;0;0;0
185.9732;1.03403;2.3285;0.27385;0;0;0;0
187.4732;1.0422;2.3165;0.279691;0;0;0;0
188.9732;1.05487;2.3114;0.285958;0;0;0;0
190.4731;1.06681;2.2849;0.292865;0;0;0;0
191.9731;1.0745;2.2725;0.299999;0;0;0;0
193.4731;1.08788;2.2488;0.306327;0;0;0;0
194.9731;1.09724;2.2308;0.312584;0;0;0;0
196.4731;1.10944;2.2021;0.320754;0;0;0;0
197.973;1.11933;2.2103;0.327578;0;0;0;0
199.473;1.1285;2.1683;0.334244;0;0;0;0
200.973;1.14077;2.1702;0.339109;0;0;0;0
202.473;1.14958;2.1528;0.345742;0;0;0;0
203.9729;1.16105;2.1319;0.350918;0;0;0;0
205.4729;1.1735;2.0975;0.357884;0;0;0;0
206.9729;1.18567;2.0542;0.367039;0;0;0;0
208.4729;1.19989;1.9647;0.377218;0;0;0;0
209.9728;1.21556;1.7634;0.391447;0;0;0;0
211.4728;1.23556;1.5233;0.448209;0;0;0;0
212.9728;1.25036;1.4114;0.464992;0;0;0;0
214.4728;1.26436;1.3036;0.469925;0;0;0;0
215.9728;1.27681;1.2388;0.472025;0;0;0;0
217.4727;1.28973;1.1933;0.479302;0;0;0;0
218.9727;1.30228;1.1405;0.488031;0;0;0;0
220.4727;1.31478;1.0669;0.512072;0;0;0;0
221.9727;1.32624;1.0255;0.519482;0;0;0;0
223.4726;1.33834;0.9708;0.526117;0;0;0;0
224.9726;1.35;0.9073;0.533444;0;0;0;0
226.4726;1.36271;0.8982;0.538881;0;0;0;0
227.9726;1.37398;0.8779;0.543339;0;0;0;0
229.4725;1.38512;0.8239;0.550995;0;0;0;0
230.9725;1.39413;0.7841;0.5581;0;0;0;0
232.4725;1.40601;0.7632;0.563987;0;0;0;0
233.9725;1.42004;0.7345;0.571651;0;0;0;0
235.4725;1.42918;0.6962;0.578857;0;0;0;0
236.9724;1.44405;0.6627;0.584576;0;0;0;0
238.4724;1.4541;0.6352;0.591718;0;0;0;0
239.9724;1.46391;0.6131;0.598703;0;0;0;0
241.4724;1.47798;0.5679;0.606075;0;0;0;0
242.9724;1.49148;0.5505;0.611994;0;0;0;0
244.4723;1.49907;0.5306;0.61892;0;0;0;0
245.9723;1.5083;0.499;0.624899;0;0;0;0
247.4723;1.52032;0.4797;0.631549;0;0;0;0
248.9723;1.53;0.4526;0.637132;0;0;0;0
250.4722;1.54307;0.427;0.64303;0;0;0;0
251.9722;1.55546;0.4067;0.650369;0;0;0;0
253.4722;1.56404;0.3916;0.655617;0;0;0;0
254.9722;1.57399;0.3834;0.661481;0;0;0;0
256.4721;1.58805;0.3603;0.667024;0;0;0;0
257.9721;1.59762;0.3369;0.673164;0;0;0;0
259.4721;1.60548;0.3154;0.678666;0;0;0;0
260.9721;1.61802;0.2885;0.684268;0;0;0;0
262.472;1.63031;0.2769;0.690424;0;0;0;0
263.972;1.64296;0.2449;0.696499;0;0;0;0
265.472;1.6524;0.2174;0.70209;0;0;0;0
266.972;1.66423;0.2124;0.708063;0;0;0;0
268.472;1.6751;0.1903;0.71427;0;0;0;0
269.9719;1.68415;0.1783;0.720103;0;0;0;0
271.4719;1.69643;0.1372;0.726017;0;0;0;0
272.9719;1.70785;0.1135;0.7327;0;0;0;0
274.4719;1.71946;0.1008;0.73718;0;0;0;0
275.9719;1.72915;0.0718;0.74186;0;0;0;0
277.4718;1.7397;0.0553;0.747963;0;0;0;0
278.9718;1.75198;0.05;0.753678;0;0;0;0
280.4718;1.76204;0.0405;0.759682;0;0;0;0
281.9718;1.77208;0.03;0.764237;0;0;0;0
283.4717;1.78161;0.0082;0.768679;0;0;0;0
284.9717;1.79178;-0.0003;0.774742;0;0;0;0
286.4717;1.80442;-0.0158;0.780399;0;0;0;0
286.9717;1.80906;-0.0189;0.782333;0;0;0;0