Folder: ethz/Template_Auto_Cali_large_DP600/_results

Note: README.md
**MODELLING AND CALIBRATING A POLYN YIELD SURFACE FUNCTION**

---

In the context of my research assistant internship at ETH Zurich, I have to implement and find an operationnal strategy to calibrate a yield surface function based on the polyN model which is a homogenous polynomial of degree N.

To make the calibration operationnal please copy paste a folder "{material}_results" containing the csv files for a given material in the lab_data directory and then change the parameters you want in the polyN_optimization/param.txt. Then run polyN_optimization/optimize_polyN.py. The coefficients of the polyN function will be accessible in the polyN_coeff.npy file.

File: NT6_00_1.csv
Time[s],Displacement[mm],Force[kN],AxStrain_1,AxStrain_2,Thickness[mm],OuterWidth[mm],InnerWidth[mm]
0,0,-0.0017465,0,0,0.28924,4,2
2,4.2682e-05,-0.0016562,-0.00022505,0,0,0,0
3.999,0.00039868,-0.000637,0.00028665,0,0,0,0
6,0.00048007,0.0014182,-0.00032847,0,0,0,0
7.999,0.00052035,0.002744,0.00013342,0,0,0,0
10,0.00095969,0.0043793,0.0002414,0,0,0,0
12,0.0011137,0.0080096,0.00014941,0,0,0,0
14,0.0014942,0.012656,0.00018777,0,0,0,0
16,0.001828,0.018963,0.00036623,0,0,0,0
18,0.0021469,0.027089,0.00068035,0,0,0,0
20,0.0024845,0.034858,0.00093166,0,0,0,0
22,0.0027404,0.041891,0.00087366,0,0,0,0
23.999,0.0029474,0.048956,0.00076784,0,0,0,0
26,0.0032843,0.056261,0.00099071,0,0,0,0
27.999,0.0036508,0.063622,0.0008893,0,0,0,0
29.999,0.003884,0.071017,0.0010973,0,0,0,0
31.999,0.0041932,0.078242,0.00090688,0,0,0,0
33.999,0.0043852,0.085539,0.0012734,0,0,0,0
35.999,0.0047544,0.092747,0.0014927,0,0,0,0
37.999,0.0050411,0.099949,0.0011845,0,0,0,0
40,0.0053227,0.10711,0.001351,0,0,0,0
42,0.0056842,0.11424,0.0014918,0,0,0,0
43.999,0.0060293,0.12145,0.00149,0,0,0,0
46,0.0065157,0.1289,0.0012762,0,0,0,0
48,0.0068294,0.13622,0.0018154,0,0,0,0
49.999,0.0071738,0.14418,0.0015435,0,0,0,0
52,0.0075186,0.15246,0.0017115,0,0,0,0
54,0.0079849,0.1611,0.0021459,0,0,0,0
55.999,0.0083889,0.16976,0.0021219,0,0,0,0
58,0.0089777,0.17865,0.0027935,0,0,0,0
60,0.009595,0.18762,0.0026225,0,0,0,0
62,0.010257,0.19664,0.0027059,0,0,0,0
64,0.010929,0.20582,0.0031754,0,0,0,0
66,0.011704,0.21459,0.0034701,0,0,0,0
68,0.012577,0.22355,0.0037919,0,0,0,0
69.999,0.013462,0.23229,0.0040306,0,0,0,0
72,0.014666,0.24056,0.0048514,0,0,0,0
73.999,0.015779,0.24839,0.0053718,0,0,0,0
76,0.017067,0.25571,0.0062184,0,0,0,0
78.008,0.018537,0.26232,0.0067589,0,0,0,0
79.999,0.020038,0.2684,0.007788,0,0,0,0
81.999,0.021663,0.27402,0.0092149,0,0,0,0
83.999,0.023362,0.27911,0.01011,0,0,0,0
85.999,0.025302,0.28383,0.011182,0,0,0,0
88,0.026961,0.28815,0.012136,0,0,0,0
90,0.028762,0.29223,0.013101,0,0,0,0
92,0.030741,0.2961,0.014096,0,0,0,0
94,0.032582,0.29971,0.014949,0,0,0,0
95.999,0.03453,0.30325,0.016041,0,0,0,0
97.999,0.036553,0.30669,0.017059,0,0,0,0
99.999,0.038525,0.3099,0.017907,0,0,0,0
102,0.040668,0.31295,0.018996,0,0,0,0
104,0.042525,0.31589,0.019892,0,0,0,0
106,0.044641,0.31871,0.020695,0,0,0,0
108,0.046789,0.32148,0.021734,0,0,0,0
110,0.048862,0.32406,0.022813,0,0,0,0
112,0.050915,0.32656,0.023946,0,0,0,0
114,0.052904,0.329,0.025049,0,0,0,0
116,0.055253,0.33134,0.026229,0,0,0,0
118,0.05728,0.33366,0.026837,0,0,0,0
120,0.059546,0.33591,0.027916,0,0,0,0
122,0.061635,0.33804,0.029183,0,0,0,0
124,0.063836,0.34012,0.030195,0,0,0,0
126,0.066044,0.34219,0.031468,0,0,0,0
128,0.068266,0.34411,0.03254,0,0,0,0
130,0.070421,0.34596,0.033634,0,0,0,0
132,0.072566,0.34779,0.034671,0,0,0,0
134,0.074845,0.34959,0.036003,0,0,0,0
136,0.077069,0.35128,0.036909,0,0,0,0
138,0.07932,0.35292,0.038299,0,0,0,0
140,0.081489,0.35454,0.039405,0,0,0,0
142,0.083801,0.35613,0.040664,0,0,0,0
144,0.086042,0.35767,0.041781,0,0,0,0
146,0.08825,0.35918,0.042889,0,0,0,0
148,0.090459,0.36061,0.044092,0,0,0,0
150,0.09273,0.36203,0.045325,0,0,0,0
152,0.095072,0.3634,0.046,0,0,0,0
154,0.097301,0.36474,0.047063,0,0,0,0
156,0.099518,0.36606,0.048308,0,0,0,0
158,0.10197,0.36736,0.049245,0,0,0,0
160,0.10437,0.36862,0.050444,0,0,0,0
162,0.10662,0.36982,0.051513,0,0,0,0
164,0.10885,0.37098,0.0526,0,0,0,0
166,0.1111,0.37209,0.053586,0,0,0,0
168,0.11343,0.37322,0.054425,0,0,0,0
170,0.11591,0.37433,0.056185,0,0,0,0
172,0.1182,0.37541,0.057191,0,0,0,0
174,0.12052,0.37645,0.058319,0,0,0,0
176,0.12283,0.37744,0.059578,0,0,0,0
178,0.12522,0.37841,0.060759,0,0,0,0
180,0.12755,0.37941,0.061954,0,0,0,0
182,0.12994,0.38035,0.063217,0,0,0,0
184,0.13226,0.38126,0.064503,0,0,0,0
186,0.13472,0.38214,0.065903,0,0,0,0
188,0.13712,0.383,0.06711,0,0,0,0
190,0.13948,0.38388,0.068325,0,0,0,0
192,0.14189,0.38471,0.069581,0,0,0,0
194,0.14427,0.38553,0.071501,0,0,0,0
196,0.14679,0.38631,0.072375,0,0,0,0
198,0.14902,0.38707,0.074123,0,0,0,0
200,0.15145,0.38781,0.075973,0,0,0,0
202,0.15385,0.38854,0.077455,0,0,0,0
204,0.15627,0.38926,0.078829,0,0,0,0
206,0.15868,0.38994,0.079873,0,0,0,0
208,0.16119,0.39058,0.082266,0,0,0,0
210,0.16371,0.39122,0.083416,0,0,0,0
212,0.16593,0.39184,0.084952,0,0,0,0
214,0.16843,0.39241,0.086773,0,0,0,0
216,0.17093,0.39297,0.088587,0,0,0,0
218,0.17334,0.39351,0.090247,0,0,0,0
220,0.1757,0.39404,0.0919,0,0,0,0
222,0.17812,0.39458,0.093531,0,0,0,0
224,0.18055,0.39508,0.095415,0,0,0,0
226,0.18309,0.39558,0.096904,0,0,0,0
228,0.18536,0.39608,0.099008,0,0,0,0
230,0.18782,0.39655,0.1009,0,0,0,0
232,0.19022,0.397,0.10304,0,0,0,0
234,0.19284,0.39742,0.10481,0,0,0,0
236,0.19528,0.39785,0.10675,0,0,0,0
238,0.19773,0.39827,0.10856,0,0,0,0
240,0.2002,0.39865,0.11033,0,0,0,0
242,0.20273,0.39902,0.11254,0,0,0,0
244,0.20516,0.39936,0.11472,0,0,0,0
246,0.2077,0.39969,0.11685,0,0,0,0
248,0.2102,0.40003,0.11949,0,0,0,0
250,0.21284,0.40034,0.12235,0,0,0,0
252,0.2154,0.40064,0.12492,0,0,0,0
254,0.21768,0.40091,0.12738,0,0,0,0
256,0.22036,0.40118,0.13017,0,0,0,0
258,0.22294,0.40143,0.13266,0,0,0,0
260,0.2255,0.40163,0.13522,0,0,0,0
262,0.22804,0.40183,0.13844,0,0,0,0
264,0.23064,0.40204,0.14122,0,0,0,0
266,0.23302,0.40226,0.14496,0,0,0,0
268,0.23585,0.40244,0.14825,0,0,0,0
270,0.23808,0.40256,0.15195,0,0,0,0
272,0.24052,0.4027,0.15575,0,0,0,0
274,0.24319,0.40281,0.15943,0,0,0,0
276,0.2458,0.40291,0.16313,0,0,0,0
278,0.24839,0.403,0.16692,0,0,0,0
280,0.25097,0.40304,0.17021,0,0,0,0
282,0.25352,0.4031,0.17362,0,0,0,0
284,0.25615,0.40316,0.17693,0,0,0,0
286,0.25876,0.40319,0.18031,0,0,0,0
288,0.2613,0.40321,0.18373,0,0,0,0
290,0.26382,0.40322,0.18678,0,0,0,0
292,0.26657,0.4032,0.19,0,0,0,0
294,0.26904,0.40316,0.19308,0,0,0,0
296,0.27174,0.40313,0.19633,0,0,0,0
298,0.27435,0.4031,0.19983,0,0,0,0
300,0.27694,0.40306,0.20333,0,0,0,0
302,0.27952,0.40301,0.20695,0,0,0,0
304,0.28222,0.40296,0.21094,0,0,0,0
306,0.28474,0.40291,0.21473,0,0,0,0
308,0.28732,0.40287,0.21847,0,0,0,0
310,0.29008,0.40283,0.22272,0,0,0,0
312,0.29267,0.40276,0.22622,0,0,0,0
314,0.29527,0.40269,0.23034,0,0,0,0
316,0.29782,0.40264,0.2343,0,0,0,0
318,0.30049,0.40257,0.2387,0,0,0,0
320,0.30318,0.40251,0.243,0,0,0,0
322,0.30574,0.40243,0.24741,0,0,0,0
324,0.30857,0.40236,0.25206,0,0,0,0
326,0.31114,0.40229,0.25657,0,0,0,0
328,0.31384,0.40222,0.26108,0,0,0,0
330,0.31642,0.40215,0.26608,0,0,0,0
332,0.31899,0.40206,0.27109,0,0,0,0
334,0.32186,0.40195,0.27603,0,0,0,0
336,0.32446,0.40184,0.28139,0,0,0,0
338,0.32728,0.40174,0.28705,0,0,0,0
340,0.32999,0.40161,0.29308,0,0,0,0
342,0.33262,0.4015,0.29962,0,0,0,0
344,0.3352,0.40136,0.306,0,0,0,0
346,0.33822,0.40117,0.31317,0,0,0,0
348,0.34092,0.40097,0.31987,0,0,0,0
350,0.34362,0.40075,0.32697,0,0,0,0
352,0.34648,0.40052,0.3337,0,0,0,0
354,0.34927,0.40025,0.34114,0,0,0,0
356,0.35199,0.39992,0.34879,0,0,0,0
358,0.35491,0.39952,0.35681,0,0,0,0
360,0.35789,0.39902,0.36385,0,0,0,0
362,0.36075,0.39843,0.37052,0,0,0,0
364,0.36388,0.39774,0.3768,0,0,0,0
366,0.36691,0.39693,0.38358,0,0,0,0
368,0.36998,0.39601,0.39096,0,0,0,0
370,0.37308,0.39498,0.39949,0,0,0,0
372,0.37615,0.39384,0.40864,0,0,0,0
374,0.37915,0.39258,0.41748,0,0,0,0
376,0.38203,0.39116,0.42525,0,0,0,0
378,0.38511,0.38961,0.43284,0,0,0,0
380,0.38815,0.38799,0.44024,0,0,0,0
382,0.39099,0.3863,0.44861,0,0,0,0
384,0.39391,0.38444,0.45741,0,0,0,0
386,0.39673,0.38255,0.46557,0,0,0,0
388,0.40015,0.38052,0.47296,0,0,0,0
390,0.40304,0.37834,0.48062,0,0,0,0
392,0.40595,0.37606,0.48872,0,0,0,0
394,0.40903,0.37356,0.49679,0,0,0,0
396,0.41207,0.37094,0.50527,0,0,0,0
398,0.41516,0.36813,0.5135,0,0,0,0
400,0.41823,0.36514,0.52187,0,0,0,0
402,0.42156,0.36186,0.53071,0,0,0,0
404,0.42506,0.35787,0.54147,0,0,0,0
404.5,0.42653,0.35678,0.54615,0,0,0,0

File: NT6_00_3.csv
Time[s],Displacement[mm],Force[kN],AxStrain_1,AxStrain_2,Thickness[mm],OuterWidth[mm],InnerWidth[mm]
0,0,0.00031235,0,0,0.28659,4,2
2,2.8387e-05,0.0003234,-0.00021534,0,0,0,0
4,2.4642e-05,0.00034861,-9.9045e-05,0,0,0,0
6,0.00037443,0.0011186,-0.0002648,0,0,0,0
8,0.00048262,0.0029093,-0.00023883,0,0,0,0
10,0.00073415,0.005187,0.00030632,0,0,0,0
12,0.00094786,0.0074816,0.00038218,0,0,0,0
14,0.00098341,0.0094963,0.00018625,0,0,0,0
16,0.0011357,0.011594,-0.00012209,0,0,0,0
18,0.0012557,0.01414,0.00037037,0,0,0,0
20,0.0014676,0.017364,0.0002093,0,0,0,0
22,0.0015446,0.021269,0.00044662,0,0,0,0
24,0.0021743,0.025999,0.00022542,0,0,0,0
26,0.0019705,0.031529,0.00032263,0,0,0,0
28,0.0022827,0.037593,-9.2905e-05,0,0,0,0
30,0.00232,0.043946,0.00022938,0,0,0,0
32,0.0026546,0.050662,0.00013449,0,0,0,0
34,0.0028565,0.058027,0.00024748,0,0,0,0
36,0.0031679,0.066101,0.0001126,0,0,0,0
38.001,0.0034361,0.07447,0.00017531,0,0,0,0
40.001,0.0037145,0.082977,-6.491e-06,0,0,0,0
42,0.004045,0.091657,-6.9112e-05,0,0,0,0
43.999,0.0044233,0.10066,0.00032233,0,0,0,0
46,0.0045734,0.10972,0.00045618,0,0,0,0
48,0.0051793,0.11893,0.00044861,0,0,0,0
50,0.0053544,0.12835,0.00031928,0,0,0,0
52,0.0060191,0.13789,0.00084936,0,0,0,0
54,0.0064372,0.14761,0.00074666,0,0,0,0
56,0.0075924,0.15741,0.00086904,0,0,0,0
58,0.007227,0.16729,0.00088133,0,0,0,0
60,0.0079502,0.17717,0.00073597,0,0,0,0
62,0.0084853,0.18709,0.00098652,0,0,0,0
63.999,0.009138,0.19673,0.0014721,0,0,0,0
66,0.010007,0.20641,0.0018628,0,0,0,0
68,0.01091,0.21567,0.0017625,0,0,0,0
70,0.011747,0.22438,0.0020958,0,0,0,0
72,0.012917,0.23251,0.0027338,0,0,0,0
74,0.01416,0.23981,0.003139,0,0,0,0
76,0.015659,0.24628,0.0039648,0,0,0,0
78,0.017234,0.25213,0.0039042,0,0,0,0
80,0.018481,0.25763,0.0046046,0,0,0,0
82,0.020107,0.26277,0.0046117,0,0,0,0
84,0.021835,0.26765,0.00541,0,0,0,0
85.999,0.023426,0.27219,0.006009,0,0,0,0
87.999,0.024971,0.27656,0.0066906,0,0,0,0
90,0.026826,0.28074,0.0075354,0,0,0,0
92,0.028671,0.28486,0.008436,0,0,0,0
94.001,0.030418,0.28876,0.0092363,0,0,0,0
96,0.032269,0.29259,0.009986,0,0,0,0
98,0.034086,0.29629,0.010867,0,0,0,0
100,0.036036,0.29982,0.01213,0,0,0,0
102,0.037884,0.30319,0.012874,0,0,0,0
104,0.040189,0.30643,0.013874,0,0,0,0
106,0.041803,0.3096,0.014423,0,0,0,0
108,0.043793,0.31273,0.015599,0,0,0,0
110,0.045956,0.31569,0.017027,0,0,0,0
112,0.04771,0.3185,0.017512,0,0,0,0
114,0.049562,0.32125,0.017998,0,0,0,0
116,0.051718,0.32391,0.019179,0,0,0,0
118,0.053839,0.32649,0.020317,0,0,0,0
120,0.05591,0.32908,0.021468,0,0,0,0
122,0.057883,0.33151,0.021781,0,0,0,0
124,0.060078,0.33388,0.023135,0,0,0,0
126,0.062313,0.33621,0.023806,0,0,0,0
128,0.064445,0.33844,0.024498,0,0,0,0
130,0.06644,0.34061,0.025636,0,0,0,0
132,0.068603,0.34276,0.026619,0,0,0,0
134,0.070681,0.34483,0.027289,0,0,0,0
136,0.07285,0.34682,0.028483,0,0,0,0
138,0.075044,0.34871,0.029328,0,0,0,0
140,0.076852,0.35062,0.030456,0,0,0,0
142,0.079319,0.35246,0.031102,0,0,0,0
144,0.081531,0.35427,0.031948,0,0,0,0
146,0.083627,0.35606,0.033117,0,0,0,0
148,0.085905,0.35779,0.034405,0,0,0,0
150,0.08804,0.35945,0.035552,0,0,0,0
152,0.090117,0.36104,0.036507,0,0,0,0
154,0.092535,0.36261,0.037662,0,0,0,0
156,0.09504,0.36416,0.038598,0,0,0,0
158,0.096882,0.36565,0.039665,0,0,0,0
160,0.099095,0.3671,0.040972,0,0,0,0
162,0.10149,0.36853,0.041972,0,0,0,0
164,0.10359,0.36991,0.043199,0,0,0,0
166,0.10577,0.37126,0.044377,0,0,0,0
168,0.10776,0.37261,0.045754,0,0,0,0
170,0.11035,0.37391,0.046999,0,0,0,0
172,0.11262,0.37514,0.048518,0,0,0,0
174,0.11485,0.37639,0.049763,0,0,0,0
176,0.11707,0.37756,0.051242,0,0,0,0
178,0.11947,0.37874,0.052144,0,0,0,0
180,0.12176,0.37989,0.05386,0,0,0,0
182,0.12405,0.381,0.055204,0,0,0,0
184,0.12631,0.38205,0.056604,0,0,0,0
186,0.12867,0.38313,0.057071,0,0,0,0
188,0.1311,0.38418,0.058925,0,0,0,0
190,0.13324,0.38518,0.059745,0,0,0,0
192,0.13558,0.38614,0.061157,0,0,0,0
194,0.13801,0.38713,0.062308,0,0,0,0
196,0.14018,0.38809,0.063299,0,0,0,0
198,0.14251,0.38901,0.064499,0,0,0,0
200,0.14515,0.38985,0.066003,0,0,0,0
202,0.1474,0.3907,0.067177,0,0,0,0
204,0.14975,0.39154,0.068723,0,0,0,0
206,0.15225,0.39235,0.070159,0,0,0,0
208,0.15456,0.39313,0.071705,0,0,0,0
210,0.15689,0.39391,0.073142,0,0,0,0
212,0.15936,0.39465,0.074763,0,0,0,0
214,0.16155,0.3954,0.076237,0,0,0,0
216,0.164,0.39617,0.077556,0,0,0,0
218,0.16636,0.39684,0.079137,0,0,0,0
220,0.16871,0.3975,0.080097,0,0,0,0
222,0.17112,0.39815,0.081693,0,0,0,0
224,0.17335,0.39878,0.083276,0,0,0,0
226,0.1759,0.39941,0.085059,0,0,0,0
228,0.17838,0.40002,0.086968,0,0,0,0
230,0.18079,0.40059,0.088717,0,0,0,0
232,0.18308,0.40114,0.090641,0,0,0,0
234,0.18556,0.40168,0.092598,0,0,0,0
236,0.18788,0.4022,0.09406,0,0,0,0
238,0.19047,0.40267,0.096373,0,0,0,0
240,0.1929,0.40315,0.098196,0,0,0,0
242,0.19557,0.40362,0.10066,0,0,0,0
244,0.19783,0.40405,0.10277,0,0,0,0
246,0.20022,0.40448,0.10509,0,0,0,0
248,0.20257,0.40487,0.10705,0,0,0,0
250,0.20576,0.40524,0.1093,0,0,0,0
252,0.20755,0.40561,0.11069,0,0,0,0
254,0.21047,0.40597,0.11319,0,0,0,0
256,0.21232,0.4063,0.11532,0,0,0,0
258,0.215,0.40659,0.11725,0,0,0,0
260,0.21739,0.40687,0.11981,0,0,0,0
262,0.22,0.40714,0.12182,0,0,0,0
264,0.2225,0.40741,0.12423,0,0,0,0
266,0.22497,0.40765,0.12649,0,0,0,0
268,0.22753,0.40787,0.12892,0,0,0,0
270,0.23004,0.40807,0.13125,0,0,0,0
272,0.23256,0.40826,0.13413,0,0,0,0
274,0.23506,0.40843,0.13684,0,0,0,0
276,0.23754,0.40855,0.13973,0,0,0,0
278,0.24016,0.40866,0.14279,0,0,0,0
280,0.24271,0.40876,0.14598,0,0,0,0
282,0.24526,0.40885,0.14944,0,0,0,0
284,0.24779,0.40891,0.15277,0,0,0,0
286,0.25033,0.40895,0.15602,0,0,0,0
288,0.25297,0.40898,0.1591,0,0,0,0
290,0.25551,0.40898,0.16258,0,0,0,0
292,0.25812,0.40897,0.16593,0,0,0,0
294,0.26084,0.40896,0.16935,0,0,0,0
296,0.26319,0.40891,0.17282,0,0,0,0
298,0.26609,0.40889,0.1765,0,0,0,0
300,0.2684,0.40887,0.18041,0,0,0,0
302,0.27108,0.40883,0.18402,0,0,0,0
304,0.27359,0.40879,0.18787,0,0,0,0
306,0.2762,0.40875,0.19188,0,0,0,0
308,0.27875,0.4087,0.19634,0,0,0,0
310,0.28119,0.40866,0.20055,0,0,0,0
312,0.28405,0.40862,0.20547,0,0,0,0
314,0.28694,0.40856,0.21005,0,0,0,0
316,0.28942,0.40851,0.2148,0,0,0,0
318,0.29207,0.40845,0.21999,0,0,0,0
320,0.29477,0.40838,0.22521,0,0,0,0
322,0.29743,0.40829,0.23053,0,0,0,0
324,0.29997,0.40821,0.23574,0,0,0,0
326,0.3028,0.40811,0.24152,0,0,0,0
328,0.3055,0.40801,0.24682,0,0,0,0
330,0.30816,0.40794,0.2527,0,0,0,0
332,0.31072,0.40779,0.25852,0,0,0,0
334,0.31343,0.40758,0.26437,0,0,0,0
336,0.3161,0.40739,0.27062,0,0,0,0
338,0.31895,0.40721,0.27652,0,0,0,0
340,0.32165,0.40696,0.28272,0,0,0,0
342,0.32442,0.40666,0.28939,0,0,0,0
344,0.32739,0.40626,0.29582,0,0,0,0
346,0.33034,0.40577,0.30238,0,0,0,0
348,0.33325,0.40516,0.30849,0,0,0,0
350,0.33613,0.40447,0.31503,0,0,0,0
352,0.33898,0.40367,0.32133,0,0,0,0
354,0.34185,0.40276,0.32784,0,0,0,0
356,0.34474,0.40175,0.33466,0,0,0,0
358,0.34744,0.40064,0.34187,0,0,0,0
360,0.35029,0.39946,0.349,0,0,0,0
362,0.35306,0.39826,0.35569,0,0,0,0
364,0.35575,0.39699,0.36209,0,0,0,0
366,0.35835,0.39561,0.36862,0,0,0,0
368,0.36128,0.39417,0.37544,0,0,0,0
370,0.36422,0.39265,0.38313,0,0,0,0
372,0.36676,0.39106,0.39155,0,0,0,0
374,0.36928,0.38937,0.40091,0,0,0,0
376,0.37254,0.3876,0.40937,0,0,0,0
378,0.37535,0.38578,0.41754,0,0,0,0
380,0.37803,0.38384,0.42528,0,0,0,0
382,0.38095,0.38182,0.43338,0,0,0,0
384,0.38381,0.37968,0.4419,0,0,0,0
386,0.38667,0.37739,0.45032,0,0,0,0
388,0.38953,0.37498,0.45879,0,0,0,0
390,0.39256,0.3724,0.46763,0,0,0,0
392,0.3955,0.36969,0.47565,0,0,0,0
394,0.39851,0.36676,0.48527,0,0,0,0
396,0.40165,0.3636,0.49558,0,0,0,0
398,0.40487,0.36017,0.50504,0,0,0,0
400,0.40809,0.35635,0.51542,0,0,0,0
402,0.41178,0.35196,0.52647,0,0,0,0
403,0.415,0.34951,0.53643,0,0,0,0

File: NT6_00_4.csv
Time[s],Displacement[mm],Force[kN],AxStrain_1,AxStrain_2,Thickness[mm],OuterWidth[mm],InnerWidth[mm]
0,0,0.0017725,0,0,0.14143,2,1
2.001,6.2231e-05,0.00193,0.00063122,0,0,0,0
4,0.0001472,0.00212,-3.3394e-05,0,0,0,0
6.001,0.00023001,0.00221,9.1201e-05,0,0,0,0
8,0.00021612,0.00224,-0.00046584,0,0,0,0
10.001,0.00030685,0.0023,0.00059662,0,0,0,0
12,0.00020252,0.0023757,6.045e-05,0,0,0,0
14,0.00021786,0.0024729,0.00042631,0,0,0,0
16,0.00015352,0.0025871,0.00075557,0,0,0,0
18,9.4655e-05,0.0027329,0.00074757,0,0,0,0
20,0.0002131,0.0029729,0.00092183,0,0,0,0
22.001,0.00018956,0.0032857,0.00047018,0,0,0,0
24,0.00022583,0.0037871,-2.2816e-05,0,0,0,0
26,0.00026029,0.0046772,0.00061313,0,0,0,0
28.001,0.000269,0.0057271,0.00020432,0,0,0,0
30,0.00037052,0.0066985,2.3323e-05,0,0,0,0
32.001,0.00050548,0.00761,0.001019,0,0,0,0
34,0.00047845,0.0085357,0.0015621,0,0,0,0
36,0.00060424,0.0095257,0.0012778,0,0,0,0
38.001,0.00058269,0.010519,0.00047599,0,0,0,0
40.001,0.00077178,0.01157,0.0010669,0,0,0,0
42,0.00078138,0.012707,0.0010847,0,0,0,0
44,0.00079025,0.013946,0.0011291,0,0,0,0
46,0.00092045,0.015313,0.00041414,0,0,0,0
48,0.0012071,0.016814,0.001181,0,0,0,0
50,0.0012549,0.018411,0.00089167,0,0,0,0
52.001,0.0012115,0.020131,0.0013437,0,0,0,0
54,0.0012685,0.02196,0.00094096,0,0,0,0
56,0.0014746,0.023943,0.00087436,0,0,0,0
58,0.0015863,0.026011,0.00062721,0,0,0,0
60,0.0018481,0.028277,0.0021512,0,0,0,0
62.001,0.0020198,0.030647,0.0015439,0,0,0,0
64,0.0021592,0.033051,0.00072967,0,0,0,0
66.001,0.0024072,0.035453,0.00072646,0,0,0,0
68,0.002504,0.037944,0.00033262,0,0,0,0
70,0.0028012,0.040451,0.00085935,0,0,0,0
72,0.0029836,0.042927,0.0011227,0,0,0,0
74,0.0033411,0.045397,0.0011164,0,0,0,0
76,0.0036418,0.047841,0.001078,0,0,0,0
78,0.0039683,0.050194,0.0011488,0,0,0,0
80,0.0043671,0.052536,0.0014055,0,0,0,0
82,0.0048418,0.054731,0.0021967,0,0,0,0
84,0.0052672,0.056786,0.0030166,0,0,0,0
86,0.005856,0.058669,0.0028941,0,0,0,0
88,0.0064225,0.060469,0.0030645,0,0,0,0
90,0.0070452,0.062109,0.003413,0,0,0,0
92.001,0.0077693,0.063604,0.0044514,0,0,0,0
94.001,0.0084346,0.064967,0.003901,0,0,0,0
96,0.0092933,0.066271,0.0045362,0,0,0,0
98,0.010098,0.067429,0.0048744,0,0,0,0
100,0.010997,0.068511,0.0053351,0,0,0,0
102,0.011786,0.069547,0.006674,0,0,0,0
104,0.012709,0.070523,0.0072997,0,0,0,0
106,0.013565,0.071436,0.0074908,0,0,0,0
108,0.014512,0.072303,0.0077296,0,0,0,0
110,0.015506,0.073176,0.0083748,0,0,0,0
112,0.016431,0.074004,0.0091046,0,0,0,0
114,0.017384,0.074751,0.0106,0,0,0,0
116,0.018344,0.075486,0.010612,0,0,0,0
118,0.019344,0.07622,0.011861,0,0,0,0
120,0.020298,0.076916,0.013049,0,0,0,0
122,0.021285,0.07759,0.014184,0,0,0,0
124,0.022365,0.07826,0.013883,0,0,0,0
126,0.023366,0.078907,0.014658,0,0,0,0
128,0.02433,0.079534,0.014858,0,0,0,0
130,0.025359,0.080113,0.015925,0,0,0,0
132,0.02633,0.080726,0.016868,0,0,0,0
134,0.027349,0.081307,0.018534,0,0,0,0
136,0.028445,0.081827,0.019011,0,0,0,0
138,0.029497,0.082346,0.019904,0,0,0,0
140,0.030568,0.082899,0.020879,0,0,0,0
142,0.031577,0.083404,0.02285,0,0,0,0
144,0.032665,0.083886,0.023607,0,0,0,0
146,0.033727,0.084364,0.025434,0,0,0,0
148,0.034814,0.084804,0.025925,0,0,0,0
150,0.035916,0.08525,0.027012,0,0,0,0
152,0.036952,0.085681,0.028392,0,0,0,0
154,0.037966,0.086093,0.028188,0,0,0,0
156,0.039156,0.08651,0.029127,0,0,0,0
158,0.040182,0.086904,0.029045,0,0,0,0
160,0.041263,0.087257,0.029361,0,0,0,0
162,0.042371,0.087633,0.029502,0,0,0,0
164,0.043457,0.088011,0.031375,0,0,0,0
166,0.044515,0.088364,0.031604,0,0,0,0
168,0.04568,0.088713,0.03252,0,0,0,0
170,0.046796,0.08907,0.033526,0,0,0,0
172,0.047998,0.089407,0.035005,0,0,0,0
174,0.04903,0.08972,0.036305,0,0,0,0
176,0.0502,0.090021,0.037485,0,0,0,0
178,0.051332,0.090297,0.038145,0,0,0,0
180,0.052487,0.090617,NaN,0,0,0,0
182,0.053626,0.09094,NaN,0,0,0,0
184,0.054842,0.091223,NaN,0,0,0,0
186,0.055986,0.0915,NaN,0,0,0,0
188,0.057167,0.091773,NaN,0,0,0,0
190,0.058336,0.092044,NaN,0,0,0,0
192,0.05943,0.092307,NaN,0,0,0,0
194,0.060593,0.09257,NaN,0,0,0,0
196,0.06176,0.0928,NaN,0,0,0,0
198,0.062944,0.09304,NaN,0,0,0,0
200,0.064076,0.09329,NaN,0,0,0,0
202,0.065236,0.093523,NaN,0,0,0,0
204,0.066369,0.093747,NaN,0,0,0,0
206,0.067623,0.093957,NaN,0,0,0,0
208,0.068769,0.094179,NaN,0,0,0,0
210,0.06997,0.094447,NaN,0,0,0,0
212,0.071127,0.094667,NaN,0,0,0,0
214,0.07229,0.094853,NaN,0,0,0,0
216,0.073493,0.09505,NaN,0,0,0,0
218,0.074689,0.095247,NaN,0,0,0,0
220,0.075906,0.095436,NaN,0,0,0,0
222,0.077039,0.09563,NaN,0,0,0,0
224,0.078081,0.095797,NaN,0,0,0,0
226,0.079426,0.09594,NaN,0,0,0,0
228,0.080644,0.09609,NaN,0,0,0,0
230,0.081601,0.096257,NaN,0,0,0,0
232,0.082977,0.096416,NaN,0,0,0,0
234,0.084211,0.09656,NaN,0,0,0,0
236,0.085456,0.096697,NaN,0,0,0,0
238,0.086548,0.096857,NaN,0,0,0,0
240,0.087798,0.097017,NaN,0,0,0,0
242,0.089012,0.097123,NaN,0,0,0,0
244,0.090266,0.09721,NaN,0,0,0,0
246,0.091473,0.097303,NaN,0,0,0,0
248,0.092712,0.097407,NaN,0,0,0,0
250,0.093857,0.09754,NaN,0,0,0,0
252,0.095174,0.097663,NaN,0,0,0,0
254,0.096361,0.097773,NaN,0,0,0,0
256,0.097621,0.097884,NaN,0,0,0,0
258,0.098969,0.097977,NaN,0,0,0,0
260,0.10012,0.098073,NaN,0,0,0,0
262,0.10135,0.09817,NaN,0,0,0,0
264,0.10263,0.09825,NaN,0,0,0,0
266,0.10382,0.098323,NaN,0,0,0,0
268,0.10514,0.09839,NaN,0,0,0,0
270,0.10633,0.09848,NaN,0,0,0,0
272,0.10757,0.09861,NaN,0,0,0,0
274,0.10886,0.098727,NaN,0,0,0,0
276,0.11009,0.09878,NaN,0,0,0,0
278,0.1114,0.098817,NaN,0,0,0,0
280,0.11265,0.098883,NaN,0,0,0,0
282,0.11391,0.09893,NaN,0,0,0,0
284,0.11511,0.098977,NaN,0,0,0,0
286,0.11638,0.09903,NaN,0,0,0,0
288,0.11762,0.099057,NaN,0,0,0,0
290,0.11888,0.09908,NaN,0,0,0,0
292,0.12017,0.099137,NaN,0,0,0,0
294,0.12141,0.099176,NaN,0,0,0,0
296,0.12262,0.099193,NaN,0,0,0,0
298,0.12402,0.099207,NaN,0,0,0,0
300,0.12519,0.099234,NaN,0,0,0,0
302,0.12652,0.099263,NaN,0,0,0,0
304,0.12778,0.099263,NaN,0,0,0,0
306,0.129,0.099247,NaN,0,0,0,0
308,0.1303,0.099247,NaN,0,0,0,0
310,0.13166,0.099257,NaN,0,0,0,0
312,0.13282,0.09926,NaN,0,0,0,0
314,0.13414,0.099256,NaN,0,0,0,0
316,0.13552,0.099267,NaN,0,0,0,0
318,0.13681,0.099257,NaN,0,0,0,0
320,0.13803,0.09919,NaN,0,0,0,0
322,0.13934,0.099157,NaN,0,0,0,0
324,0.14061,0.099167,NaN,0,0,0,0
326,0.14188,0.09915,NaN,0,0,0,0
328,0.1433,0.099116,NaN,0,0,0,0
330,0.14449,0.099087,NaN,0,0,0,0
332,0.14582,0.09907,NaN,0,0,0,0
334,0.14707,0.099057,NaN,0,0,0,0
336,0.14844,0.099037,NaN,0,0,0,0
338,0.14969,0.099013,NaN,0,0,0,0
340,0.15103,0.098993,NaN,0,0,0,0
342,0.15237,0.098973,NaN,0,0,0,0
344,0.15368,0.098963,NaN,0,0,0,0
346,0.15505,0.09894,NaN,0,0,0,0
348,0.15642,0.09891,NaN,0,0,0,0
350,0.15762,0.098877,NaN,0,0,0,0
352,0.15899,0.098853,NaN,0,0,0,0
354,0.16026,0.09883,NaN,0,0,0,0
356,0.16166,0.098803,NaN,0,0,0,0
358,0.16296,0.098777,NaN,0,0,0,0
360,0.16433,0.098753,NaN,0,0,0,0
362,0.16565,0.09872,NaN,0,0,0,0
364,0.16707,0.098693,NaN,0,0,0,0
366,0.16831,0.098643,NaN,0,0,0,0
368,0.1697,0.0986,NaN,0,0,0,0
370,0.17104,0.098574,NaN,0,0,0,0
372,0.1724,0.09853,NaN,0,0,0,0
374,0.17373,0.09849,NaN,0,0,0,0
376,0.17504,0.098464,NaN,0,0,0,0
378,0.17646,0.09841,NaN,0,0,0,0
380,0.17781,0.098353,NaN,0,0,0,0
382,0.1792,0.098293,NaN,0,0,0,0
384,0.18055,0.098217,NaN,0,0,0,0
386,0.18199,0.098137,NaN,0,0,0,0
388,0.18337,0.098057,NaN,0,0,0,0
390,0.18478,0.097953,NaN,0,0,0,0
392,0.18619,0.09784,NaN,0,0,0,0
394,0.18762,0.097713,NaN,0,0,0,0
396,0.18904,0.09757,NaN,0,0,0,0
398,0.19055,0.097407,NaN,0,0,0,0
400,0.19209,0.09722,NaN,0,0,0,0
402,0.19377,0.096993,NaN,0,0,0,0
404,0.19498,0.096743,NaN,0,0,0,0
406,0.19664,0.096474,NaN,0,0,0,0
408,0.19821,0.096143,NaN,0,0,0,0
410,0.19979,0.09574,NaN,0,0,0,0
412,0.20157,0.095291,NaN,0,0,0,0
414,0.2033,0.094736,NaN,0,0,0,0
416,0.20509,0.094114,NaN,0,0,0,0
418,0.20704,0.093384,NaN,0,0,0,0
420,0.20906,0.092499,NaN,0,0,0,0
422,0.21122,0.091386,NaN,0,0,0,0
424,0.21424,0.089798,NaN,0,0,0,0