Folder: ethz/polyN_optimization/results_exp/AA6014-T4

Note: README.md
**MODELLING AND CALIBRATING A POLYN YIELD SURFACE FUNCTION**

---

In the context of my research assistant internship at ETH Zurich, I have to implement and find an operationnal strategy to calibrate a yield surface function based on the polyN model which is a homogenous polynomial of degree N.

To make the calibration operationnal please copy paste a folder "{material}_results" containing the csv files for a given material in the lab_data directory and then change the parameters you want in the polyN_optimization/param.txt. Then run polyN_optimization/optimize_polyN.py. The coefficients of the polyN function will be accessible in the polyN_coeff.npy file.

File: CH_45_3.csv
Time[s],Displacement[mm],Force[kN],AxStrain_1,AxStrain_2,Thickness[mm],OuterWidth[mm],Diameter[mm]
0.6,0,-0.0061597,0,0,1.1142,19.934,5.2297
3.1,0.001376,0.092573,1e-06,1.7e-05,0,0,0
5.6,0.002747,0.185,0.00013099,0.00016999,0,0,0
8.1,0.003776,0.27328,0.00033194,0.00024397,0,0,0
10.6,0.004517,0.33015,0.00018998,0.00023397,0,0,0
13.1,0.006349,0.40514,0.00048788,0.00034394,0,0,0
15.6,0.00749,0.48085,0.0004469,0.00047289,0,0,0
18.1,0.008628,0.56015,0.0004499,0.0004529,0,0,0
20.6,0.009612,0.64171,0.00054385,0.00041291,0,0,0
23.1,0.011626,0.72514,0.00078169,0.00064779,0,0,0
25.6,0.013496,0.80486,0.00094256,0.00072174,0,0,0
28.1,0.014617,0.88829,0.00098651,0.00090559,0,0,0
30.6,0.015735,0.968,0.0008896,0.0008956,0,0,0
33.1,0.017498,1.0481,0.0012213,0.00090559,0,0,0
35.6,0.019794,1.1279,0.001379,0.00099351,0,0,0
38.1,0.021382,1.2051,0.0015937,0.0014999,0,0,0
40.6,0.022574,1.282,0.0017774,0.0016167,0,0,0
43.1,0.02385,1.357,0.0017674,0.0016307,0,0,0
45.6,0.026234,1.4326,0.0022704,0.0018383,0,0,0
48.1,0.027872,1.5051,0.0027592,0.0024081,0,0,0
50.6,0.029732,1.58,0.0030065,0.0026385,0,0,0
53.1,0.031592,1.651,0.003148,0.0029766,0,0,0
55.6,0.033955,1.7206,0.0037998,0.0033314,0,0,0
58.1,0.036289,1.7876,0.0047726,0.0041374,0,0,0
60.6,0.038938,1.8524,0.0053606,0.0049129,0,0,0
63.1,0.043282,1.9116,0.0059413,0.0054004,0,0,0
65.6,0.048573,1.962,0.0071851,0.0064382,0,0,0
68.1,0.053965,2.0091,0.0093165,0.0083719,0,0,0
70.6,0.061556,2.0496,0.010911,0.010281,0,0,0
73.1,0.069835,2.0883,0.012226,0.011596,0,0,0
75.6,0.077566,2.1233,0.014038,0.013397,0,0,0
78.1,0.086977,2.1573,0.016498,0.015855,0,0,0
80.6,0.096313,2.1897,0.018247,0.018165,0,0,0
83.1,0.1055,2.2204,0.01963,0.019443,0,0,0
85.6,0.11586,2.2494,0.021693,0.021486,0,0,0
88.1,0.12525,2.278,0.024012,0.023514,0,0,0
90.6,0.13557,2.3057,0.025725,0.025454,0,0,0
93.1,0.14589,2.3313,0.0277,0.027249,0,0,0
95.6,0.15602,2.358,0.029654,0.029423,0,0,0
98.1,0.16705,2.3817,0.031458,0.031283,0,0,0
100.6,0.17704,2.4056,0.033391,0.032979,0,0,0
103.1,0.18789,2.4287,0.035202,0.034946,0,0,0
105.6,0.19885,2.4507,0.037028,0.036721,0,0,0
108.1,0.20891,2.472,0.038874,0.038642,0,0,0
110.6,0.21986,2.4923,0.040694,0.040555,0,0,0
113.1,0.22961,2.5117,0.042176,0.042253,0,0,0
115.6,0.23972,2.5293,0.043684,0.043995,0,0,0
118.1,0.24897,2.546,0.045354,0.045706,0,0,0
120.6,0.25715,2.5617,0.046797,0.04702,0,0,0
123.1,0.2668,2.577,0.048014,0.048333,0,0,0
125.6,0.27529,2.5913,0.049484,0.049707,0,0,0
128.1,0.2841,2.6057,0.050826,0.051207,0,0,0
130.6,0.29398,2.62,0.052197,0.052673,0,0,0
133.1,0.30263,2.633,0.053503,0.053915,0,0,0
135.6,0.31256,2.6467,0.054903,0.055122,0,0,0
138.1,0.32175,2.6597,0.0563,0.056773,0,0,0
140.6,0.331,2.6727,0.057569,0.057883,0,0,0
143.1,0.34088,2.6853,0.05874,0.059182,0,0,0
145.6,0.34973,2.698,0.060386,0.060383,0,0,0
148.1,0.3592,2.7107,0.06146,0.062025,0,0,0
150.6,0.36889,2.7223,0.06288,0.063224,0,0,0
153.1,0.37778,2.7343,0.064297,0.064484,0,0,0
155.6,0.38762,2.746,0.065618,0.065962,0,0,0
158.1,0.39679,2.7577,0.066907,0.067281,0,0,0
160.6,0.40596,2.7683,0.068037,0.068411,0,0,0
163.1,0.41554,2.7797,0.069573,0.069977,0,0,0
165.6,0.42388,2.7907,0.070825,0.071134,0,0,0
168.1,0.43325,2.801,0.0722,0.072446,0,0,0
170.6,0.44219,2.812,0.073417,0.073632,0,0,0
173.1,0.45077,2.822,0.074509,0.074848,0,0,0
175.6,0.46055,2.8323,0.075599,0.075999,0,0,0
178.1,0.46941,2.842,0.077123,0.07743,0,0,0
180.6,0.47832,2.852,0.078304,0.078641,0,0,0
183.1,0.48772,2.8617,0.07939,0.079912,0,0,0
185.6,0.49623,2.871,0.080783,0.080935,0,0,0
188.1,0.50543,2.881,0.082084,0.082141,0,0,0
190.6,0.51386,2.89,0.083351,0.083625,0,0,0
193.1,0.52272,2.899,0.084462,0.084828,0,0,0
195.6,0.53209,2.9087,0.085634,0.085846,0,0,0
198.1,0.54085,2.9177,0.086804,0.087139,0,0,0
200.6,0.54992,2.927,0.088127,0.088461,0,0,0
203.1,0.55908,2.9353,0.089357,0.089874,0,0,0
205.6,0.56784,2.944,0.090615,0.091008,0,0,0
208.1,0.57684,2.953,0.09181,0.092111,0,0,0
210.6,0.58557,2.9616,0.093034,0.093641,0,0,0
213.1,0.59437,2.97,0.094104,0.094955,0,0,0
215.6,0.60403,2.979,0.095479,0.096054,0,0,0
218.1,0.61233,2.987,0.09673,0.097303,0,0,0
220.6,0.62153,2.9957,0.097765,0.098611,0,0,0
223.1,0.63042,3.0043,0.099135,0.099858,0,0,0
225.6,0.63935,3.012,0.10035,0.10122,0,0,0
228.1,0.64858,3.0197,0.10159,0.10241,0,0,0
230.6,0.65721,3.028,0.10275,0.10362,0,0,0
233.1,0.66604,3.0363,0.10408,0.10495,0,0,0
235.6,0.67527,3.0443,0.10532,0.10625,0,0,0
238.1,0.68394,3.0523,0.10668,0.10758,0,0,0
240.6,0.69334,3.06,0.10791,0.10899,0,0,0
243.1,0.70233,3.068,0.10924,0.11019,0,0,0
245.6,0.71153,3.076,0.11044,0.1117,0,0,0
248.1,0.72076,3.0833,0.11188,0.11305,0,0,0
250.6,0.72946,3.0907,0.11315,0.11425,0,0,0
253.1,0.73842,3.0983,0.11455,0.11544,0,0,0
255.6,0.74732,3.1063,0.11569,0.11685,0,0,0
258.1,0.75598,3.1137,0.11713,0.11825,0,0,0
260.6,0.76525,3.121,0.11841,0.11953,0,0,0
263.1,0.77431,3.1283,0.11987,0.12078,0,0,0
265.6,0.78271,3.1353,0.12088,0.12215,0,0,0
268.1,0.79231,3.1433,0.12231,0.12355,0,0,0
270.6,0.80093,3.15,0.12376,0.12494,0,0,0
273.1,0.8099,3.1563,0.12524,0.1263,0,0,0
275.6,0.81883,3.1637,0.12634,0.12766,0,0,0
278.1,0.82746,3.1713,0.12797,0.12887,0,0,0
280.6,0.83679,3.1783,0.12915,0.13046,0,0,0
283.1,0.84575,3.1857,0.13068,0.13191,0,0,0
285.6,0.85509,3.192,0.13192,0.13338,0,0,0
288.1,0.86439,3.199,0.13342,0.13461,0,0,0
290.6,0.87328,3.2057,0.13471,0.13614,0,0,0
293.1,0.88279,3.2127,0.13626,0.1376,0,0,0
295.6,0.89165,3.2194,0.13752,0.13886,0,0,0
298.1,0.90044,3.2257,0.13907,0.14035,0,0,0
300.6,0.90978,3.233,0.14007,0.14198,0,0,0
303.1,0.91857,3.2393,0.1417,0.14332,0,0,0
305.6,0.92777,3.2457,0.14298,0.1446,0,0,0
308.1,0.93704,3.2523,0.14452,0.14631,0,0,0
310.6,0.94603,3.259,0.14586,0.14779,0,0,0
313.1,0.9554,3.2657,0.14745,0.14921,0,0,0
315.6,0.96457,3.272,0.14878,0.15068,0,0,0
318.1,0.9737,3.2787,0.15029,0.15221,0,0,0
320.6,0.983,3.2843,0.15173,0.15385,0,0,0
323.1,0.99199,3.291,0.15366,0.15532,0,0,0
325.6,1.0014,3.2973,0.15487,0.15698,0,0,0
328.1,1.0109,3.3037,0.15648,0.15842,0,0,0
330.6,1.0198,3.31,0.15794,0.15996,0,0,0
333.1,1.0294,3.316,0.15952,0.16153,0,0,0
335.6,1.0385,3.322,0.16109,0.16308,0,0,0
338.1,1.0477,3.3283,0.16255,0.16439,0,0,0
340.6,1.0568,3.3343,0.16409,0.16618,0,0,0
343.1,1.0659,3.34,0.16548,0.16783,0,0,0
345.6,1.0751,3.3463,0.16699,0.16927,0,0,0
348.1,1.0841,3.3523,0.16869,0.17078,0,0,0
350.6,1.0936,3.358,0.17022,0.1727,0,0,0
353.1,1.1029,3.3643,0.17181,0.17405,0,0,0
355.6,1.1122,3.3697,0.17342,0.17555,0,0,0
358.1,1.1217,3.3757,0.17522,0.17755,0,0,0
360.6,1.131,3.381,0.17688,0.17926,0,0,0
363.1,1.1405,3.3873,0.17865,0.18083,0,0,0
365.6,1.15,3.392,0.18003,0.18279,0,0,0
368.1,1.159,3.3983,0.18185,0.18444,0,0,0
370.6,1.1684,3.404,0.18364,0.18625,0,0,0
373.1,1.1777,3.4097,0.18532,0.18784,0,0,0
375.6,1.1869,3.4147,0.18671,0.18948,0,0,0
378.1,1.1965,3.4203,0.18844,0.19131,0,0,0
380.6,1.2056,3.426,0.19019,0.19303,0,0,0
383.1,1.215,3.431,0.19191,0.19477,0,0,0
385.6,1.2241,3.4367,0.19357,0.19678,0,0,0
388.1,1.2333,3.442,0.19537,0.19852,0,0,0
390.6,1.2426,3.447,0.19705,0.2,0,0,0
393.1,1.252,3.452,0.19876,0.20193,0,0,0
395.6,1.2613,3.458,0.20074,0.20398,0,0,0
398.1,1.2708,3.463,0.20266,0.20576,0,0,0
400.6,1.2804,3.468,0.20446,0.20759,0,0,0
403.1,1.29,3.473,0.20632,0.20944,0,0,0
405.6,1.2993,3.478,0.20823,0.21143,0,0,0
408.1,1.3089,3.483,0.21011,0.21335,0,0,0
410.6,1.3184,3.488,0.21212,0.2152,0,0,0
413.1,1.328,3.4933,0.21427,0.2172,0,0,0
415.6,1.3377,3.498,0.21603,0.21939,0,0,0
418.1,1.3473,3.503,0.21792,0.2213,0,0,0
420.6,1.3568,3.508,0.22005,0.22345,0,0,0
423.1,1.3665,3.513,0.22202,0.22533,0,0,0
425.6,1.3763,3.5174,0.22408,0.22728,0,0,0
428.1,1.3857,3.522,0.22599,0.22942,0,0,0
430.6,1.3951,3.5276,0.22805,0.23155,0,0,0
433.1,1.4049,3.532,0.22992,0.2336,0,0,0
435.6,1.4145,3.5363,0.23216,0.23588,0,0,0
438.1,1.4243,3.541,0.23439,0.23795,0,0,0
440.6,1.4339,3.546,0.23664,0.24025,0,0,0
443.1,1.4437,3.55,0.23863,0.24252,0,0,0
445.6,1.4532,3.555,0.24053,0.24452,0,0,0
448.1,1.463,3.559,0.24301,0.24675,0,0,0
450.6,1.4731,3.5637,0.24538,0.24918,0,0,0
453.1,1.4827,3.568,0.2479,0.25167,0,0,0
455.6,1.4925,3.5727,0.25002,0.25388,0,0,0
458.1,1.5023,3.577,0.25252,0.25615,0,0,0
460.6,1.5123,3.5813,0.25497,0.25861,0,0,0
463.1,1.522,3.5854,0.25726,0.26092,0,0,0
465.6,1.5319,3.59,0.26006,0.26327,0,0,0
468.1,1.5423,3.5943,0.26264,0.26605,0,0,0
470.6,1.5522,3.5983,0.26504,0.26859,0,0,0
473.1,1.5622,3.6023,0.26774,0.27118,0,0,0
475.6,1.5724,3.6063,0.27046,0.27405,0,0,0
478.1,1.5828,3.6103,0.27305,0.2767,0,0,0
480.6,1.593,3.6143,0.2759,0.27942,0,0,0
483.1,1.6033,3.6187,0.27868,0.28246,0,0,0
485.6,1.6136,3.6223,0.2815,0.28519,0,0,0
488.1,1.6239,3.6263,0.28438,0.28834,0,0,0
490.6,1.6343,3.631,0.28705,0.2913,0,0,0
493.1,1.6451,3.634,0.28982,0.29403,0,0,0
495.6,1.6556,3.638,0.29313,0.29713,0,0,0
498.1,1.666,3.6413,0.29593,0.30039,0,0,0
500.6,1.6769,3.6453,0.2987,0.30337,0,0,0
503.1,1.6873,3.6487,0.30216,0.30676,0,0,0
505.6,1.698,3.6527,0.30558,0.31019,0,0,0
508.1,1.709,3.656,0.30896,0.31331,0,0,0
510.6,1.7198,3.659,0.31228,0.31699,0,0,0
513.1,1.7309,3.6627,0.31545,0.32033,0,0,0
515.6,1.7418,3.666,0.31931,0.32381,0,0,0
518.1,1.7529,3.6693,0.32296,0.32776,0,0,0
520.6,1.7642,3.6723,0.32692,0.33162,0,0,0
523.1,1.7752,3.675,0.33085,0.33511,0,0,0
525.6,1.7867,3.6783,0.33473,0.33935,0,0,0
528.1,1.7984,3.681,0.33907,0.34358,0,0,0
530.6,1.81,3.6837,0.34327,0.34785,0,0,0
533.1,1.8217,3.6857,0.34755,0.35223,0,0,0
535.6,1.8334,3.6887,0.35214,0.3568,0,0,0
538.1,1.8458,3.6903,0.35628,0.36156,0,0,0
540.6,1.8578,3.693,0.36107,0.36664,0,0,0
543.1,1.8705,3.6947,0.36611,0.37161,0,0,0
545.6,1.8833,3.696,0.37143,0.37733,0,0,0
548.1,1.8961,3.6977,0.37716,0.38284,0,0,0
550.6,1.9094,3.699,0.38242,0.38876,0,0,0
553.1,1.9228,3.699,0.38865,0.395,0,0,0
555.6,1.9367,3.699,0.39462,0.40138,0,0,0
558.1,1.9504,3.699,0.40058,0.40881,0,0,0
560.6,1.9647,3.6977,0.40721,0.41557,0,0,0
563.1,1.9793,3.6963,0.41374,0.42323,0,0,0
565.6,1.9943,3.6933,0.42128,0.43126,0,0,0
568.1,2.0092,3.6903,0.42806,0.43962,0,0,0
570.6,2.0247,3.685,0.43582,0.44841,0,0,0
573.1,2.0404,3.6793,0.4434,0.4575,0,0,0
575.6,2.0569,3.671,0.45196,0.46759,0,0,0
578.1,2.0745,3.6486,0.46123,0.47728,0,0,0

File: CH_90_2.csv
Time[s],Displacement[mm],Force[kN],AxStrain_1,AxStrain_2,Thickness[mm],OuterWidth[mm],Diameter[mm]
0.61,0,-0.0055942,0,0,1.1282,20.038,5.2911
3.11,0.001513,0.089564,8.7996e-05,0.00039092,0,0,0
5.61,0.002907,0.178,-1.4e-05,0.00022298,0,0,0
8.11,0.003503,0.23771,-2e-05,0.00027696,0,0,0
10.61,0.004709,0.31086,6.8998e-05,0.00028396,0,0,0
13.11,0.006046,0.38829,0.00015799,0.00036893,0,0,0
15.61,0.007282,0.465,0.00032895,0.00052986,0,0,0
18.11,0.007772,0.54486,0.00026896,0.00050687,0,0,0
20.61,0.009293,0.62614,0.00026496,0.00073173,0,0,0
23.11,0.011257,0.70614,0.00078869,0.00072474,0,0,0
25.61,0.012952,0.78829,0.00084264,0.00092957,0,0,0
28.11,0.013449,0.86986,0.00066778,0.00079568,0,0,0
30.61,0.014725,0.94986,0.00088561,0.00087961,0,0,0
33.11,0.016994,1.0301,0.00090959,0.0010704,0,0,0
35.61,0.018962,1.1094,0.0010504,0.0014999,0,0,0
38.11,0.020321,1.1899,0.0011144,0.001426,0,0,0
40.61,0.021234,1.2669,0.0013491,0.0015398,0,0,0
43.11,0.02291,1.3441,0.0014529,0.0014729,0,0,0
45.61,0.025297,1.4191,0.0017175,0.0019281,0,0,0
48.11,0.026925,1.494,0.0021327,0.0022096,0,0,0
50.61,0.028234,1.5681,0.0020998,0.0022165,0,0,0
53.11,0.030457,1.6399,0.0025747,0.0023173,0,0,0
55.61,0.03234,1.7111,0.0032677,0.0030005,0,0,0
58.11,0.034599,1.7799,0.0038137,0.0036732,0,0,0
60.61,0.036688,1.8484,0.0041205,0.0038127,0,0,0
63.11,0.040552,1.9106,0.0047188,0.0043216,0,0,0
65.61,0.045826,1.9651,0.0062882,0.0056311,0,0,0
68.11,0.051201,2.0084,0.0084214,0.0073857,0,0,0
70.61,0.059778,2.0477,0.0099682,0.0087744,0,0,0
73.11,0.068282,2.0846,0.011224,0.0099682,0,0,0
75.61,0.077108,2.1186,0.013237,0.012133,0,0,0
78.11,0.08718,2.1517,0.015805,0.014413,0,0,0
80.61,0.096577,2.1824,0.017367,0.015877,0,0,0
83.11,0.10619,2.2127,0.018595,0.017397,0,0,0
85.61,0.11687,2.2413,0.020747,0.019476,0,0,0
88.11,0.12657,2.2697,0.023018,0.021594,0,0,0
90.61,0.13762,2.2967,0.024886,0.023013,0,0,0
93.11,0.14815,2.323,0.026581,0.024904,0,0,0
95.61,0.15863,2.3486,0.02844,0.026828,0,0,0
98.11,0.16999,2.3726,0.030357,0.028654,0,0,0
100.61,0.18028,2.3967,0.032202,0.030411,0,0,0
103.11,0.19208,2.42,0.03427,0.031993,0,0,0
105.61,0.20321,2.4433,0.036125,0.033912,0,0,0
108.11,0.21451,2.4653,0.037959,0.03579,0,0,0
110.61,0.22532,2.4867,0.039746,0.03759,0,0,0
113.11,0.23608,2.5074,0.041693,0.039247,0,0,0
115.61,0.24756,2.5273,0.043363,0.041047,0,0,0
118.11,0.25772,2.5463,0.045262,0.043042,0,0,0
120.61,0.2678,2.564,0.046897,0.044456,0,0,0
123.11,0.27726,2.58,0.048305,0.045804,0,0,0
125.61,0.28547,2.594,0.049584,0.047118,0,0,0
128.11,0.29422,2.6083,0.051148,0.04843,0,0,0
130.61,0.30207,2.622,0.05236,0.049517,0,0,0
133.11,0.3105,2.6354,0.053252,0.050539,0,0,0
135.61,0.31966,2.6483,0.054492,0.052038,0,0,0
138.11,0.32779,2.661,0.056049,0.053345,0,0,0
140.61,0.33784,2.6733,0.057349,0.054712,0,0,0
143.11,0.34684,2.686,0.058522,0.055951,0,0,0
145.61,0.35574,2.6983,0.059946,0.057062,0,0,0
148.11,0.36592,2.7107,0.061115,0.058425,0,0,0
150.61,0.37489,2.7223,0.062597,0.059501,0,0,0
153.11,0.3844,2.7346,0.064016,0.060733,0,0,0
155.61,0.39449,2.7467,0.065023,0.062155,0,0,0
158.11,0.40293,2.7577,0.066249,0.063133,0,0,0
160.61,0.41286,2.769,0.067632,0.064582,0,0,0
163.11,0.42183,2.7803,0.068917,0.065683,0,0,0
165.61,0.43043,2.7913,0.070232,0.066971,0,0,0
168.11,0.44056,2.802,0.071358,0.067945,0,0,0
170.61,0.4491,2.8127,0.07264,0.069386,0,0,0
173.11,0.45876,2.8237,0.07395,0.070701,0,0,0
175.61,0.46835,2.8333,0.07501,0.071952,0,0,0
178.11,0.47712,2.844,0.076193,0.073169,0,0,0
180.61,0.48687,2.854,0.077591,0.074261,0,0,0
183.11,0.49577,2.8633,0.078616,0.075165,0,0,0
185.61,0.50472,2.8734,0.079919,0.076534,0,0,0
188.11,0.51383,2.883,0.080879,0.077839,0,0,0
190.61,0.52209,2.8924,0.082364,0.078802,0,0,0
193.11,0.53169,2.9013,0.083261,0.079825,0,0,0
195.61,0.54072,2.911,0.084433,0.080879,0,0,0
198.11,0.54911,2.92,0.085852,0.082427,0,0,0
200.61,0.55888,2.929,0.087084,0.083385,0,0,0
203.11,0.56754,2.938,0.088129,0.084434,0,0,0
205.61,0.57644,2.9463,0.089266,0.0857,0,0,0
208.11,0.58557,2.9557,0.090524,0.086592,0,0,0
210.61,0.59407,2.964,0.091627,0.087669,0,0,0
213.11,0.60337,2.9723,0.092913,0.089176,0,0,0
215.61,0.61206,2.981,0.094106,0.090065,0,0,0
218.11,0.62106,2.99,0.095449,0.091231,0,0,0
220.61,0.63056,2.998,0.096456,0.092364,0,0,0
223.11,0.63939,3.0067,0.097735,0.09371,0,0,0
225.61,0.64829,3.0147,0.099013,0.094933,0,0,0
228.11,0.65759,3.0227,0.10026,0.09594,0,0,0
230.61,0.66558,3.031,0.10129,0.097158,0,0,0
233.11,0.67521,3.0393,0.10232,0.098499,0,0,0
235.61,0.68394,3.0473,0.1039,0.099624,0,0,0
238.11,0.69317,3.0557,0.10508,0.10057,0,0,0
240.61,0.70247,3.0633,0.10613,0.10205,0,0,0
243.11,0.711,3.0713,0.10746,0.1032,0,0,0
245.61,0.7205,3.079,0.10876,0.1046,0,0,0
248.11,0.7297,3.087,0.10987,0.10565,0,0,0
250.61,0.73799,3.0943,0.11107,0.10695,0,0,0
253.11,0.74739,3.1023,0.11231,0.10807,0,0,0
255.61,0.75579,3.11,0.11359,0.10957,0,0,0
258.11,0.76478,3.1177,0.11479,0.11072,0,0,0
260.61,0.77395,3.1247,0.11614,0.1118,0,0,0
263.11,0.78251,3.1323,0.11724,0.11297,0,0,0
265.61,0.79174,3.1393,0.11859,0.11432,0,0,0
268.11,0.80104,3.1473,0.11996,0.11557,0,0,0
270.61,0.8096,3.154,0.12121,0.11683,0,0,0
273.11,0.81897,3.1613,0.12263,0.11799,0,0,0
275.61,0.82743,3.1687,0.12385,0.11952,0,0,0
278.11,0.83653,3.1757,0.12512,0.12074,0,0,0
280.61,0.84599,3.183,0.12628,0.12198,0,0,0
283.11,0.85442,3.1903,0.12776,0.12332,0,0,0
285.61,0.86392,3.1973,0.12917,0.1248,0,0,0
288.11,0.87326,3.204,0.13053,0.12614,0,0,0
290.61,0.88198,3.2107,0.13203,0.12717,0,0,0
293.11,0.89158,3.2183,0.13318,0.12865,0,0,0
295.61,0.90018,3.225,0.13438,0.13013,0,0,0
298.11,0.90904,3.2317,0.13594,0.13127,0,0,0
300.61,0.91831,3.2383,0.13743,0.13251,0,0,0
303.11,0.9267,3.245,0.13872,0.13392,0,0,0
305.61,0.936,3.2517,0.13977,0.13533,0,0,0
308.11,0.94503,3.2583,0.14143,0.13641,0,0,0
310.61,0.954,3.2643,0.143,0.13791,0,0,0
313.11,0.96313,3.2713,0.14431,0.13946,0,0,0
315.61,0.97192,3.2777,0.14568,0.14062,0,0,0
318.11,0.98079,3.2847,0.1473,0.14217,0,0,0
320.61,0.99012,3.2907,0.14858,0.14368,0,0,0
323.11,0.99895,3.2963,0.15011,0.14496,0,0,0
325.61,1.0083,3.303,0.15147,0.14627,0,0,0
328.11,1.0171,3.3097,0.15302,0.14798,0,0,0
330.61,1.0264,3.3153,0.15463,0.14948,0,0,0
333.11,1.0353,3.3213,0.15619,0.15084,0,0,0
335.61,1.0441,3.328,0.15779,0.15211,0,0,0
338.11,1.0533,3.334,0.15894,0.15384,0,0,0
340.61,1.0619,3.34,0.16077,0.15519,0,0,0
343.11,1.0707,3.346,0.16226,0.1566,0,0,0
345.61,1.0796,3.352,0.16391,0.15841,0,0,0
348.11,1.0886,3.358,0.16513,0.15975,0,0,0
350.61,1.0975,3.3637,0.16681,0.16138,0,0,0
353.11,1.1067,3.37,0.16863,0.1629,0,0,0
355.61,1.1157,3.375,0.17016,0.16432,0,0,0
358.11,1.1249,3.3807,0.17123,0.16575,0,0,0
360.61,1.1336,3.387,0.17341,0.16725,0,0,0
363.11,1.1428,3.3924,0.17507,0.16887,0,0,0
365.61,1.1517,3.398,0.17637,0.17029,0,0,0
368.11,1.1607,3.403,0.17803,0.1717,0,0,0
370.61,1.1697,3.409,0.17966,0.17357,0,0,0
373.11,1.1785,3.415,0.18156,0.17518,0,0,0
375.61,1.1876,3.42,0.18288,0.17655,0,0,0
378.11,1.1967,3.4257,0.18469,0.1783,0,0,0
380.61,1.2052,3.431,0.18662,0.18021,0,0,0
383.11,1.2144,3.436,0.18865,0.1818,0,0,0
385.61,1.2233,3.441,0.18993,0.18317,0,0,0
388.11,1.2321,3.447,0.19165,0.18499,0,0,0
390.61,1.241,3.452,0.19347,0.18686,0,0,0
393.11,1.2502,3.457,0.19541,0.18861,0,0,0
395.61,1.2592,3.4624,0.19704,0.19034,0,0,0
398.11,1.2685,3.4673,0.19916,0.19175,0,0,0
400.61,1.2778,3.472,0.20108,0.19363,0,0,0
403.11,1.287,3.477,0.20295,0.19565,0,0,0
405.61,1.2962,3.482,0.20437,0.19747,0,0,0
408.11,1.3052,3.487,0.20658,0.19901,0,0,0
410.61,1.3145,3.4926,0.20871,0.20099,0,0,0
413.11,1.3238,3.497,0.20999,0.20319,0,0,0
415.61,1.3331,3.5027,0.21206,0.20527,0,0,0
418.11,1.3422,3.507,0.2142,0.20715,0,0,0
420.61,1.3514,3.512,0.21607,0.2089,0,0,0
423.11,1.3609,3.517,0.21828,0.21108,0,0,0
425.61,1.3699,3.521,0.2206,0.21317,0,0,0
428.11,1.3794,3.526,0.22246,0.21504,0,0,0
430.61,1.3886,3.531,0.22402,0.21701,0,0,0
433.11,1.3981,3.5357,0.22688,0.21931,0,0,0
435.61,1.4077,3.5403,0.22926,0.22154,0,0,0
438.11,1.417,3.545,0.23081,0.22345,0,0,0
440.61,1.4264,3.549,0.23339,0.22573,0,0,0
443.11,1.4359,3.554,0.23573,0.2279,0,0,0
445.61,1.4452,3.5584,0.23785,0.2303,0,0,0
448.11,1.455,3.563,0.24028,0.23278,0,0,0
450.61,1.4643,3.567,0.2426,0.23483,0,0,0
453.11,1.474,3.5714,0.24489,0.23681,0,0,0
455.61,1.4835,3.576,0.24749,0.23951,0,0,0
458.11,1.4931,3.5807,0.24995,0.242,0,0,0
460.61,1.503,3.5843,0.25248,0.24415,0,0,0
463.11,1.5125,3.588,0.25501,0.24673,0,0,0
465.61,1.5221,3.593,0.25807,0.24922,0,0,0
468.11,1.5323,3.597,0.26027,0.25149,0,0,0
470.61,1.5422,3.601,0.26322,0.25452,0,0,0
473.11,1.5519,3.605,0.26606,0.25735,0,0,0
475.61,1.562,3.6093,0.26868,0.25973,0,0,0
478.11,1.5722,3.613,0.2718,0.26279,0,0,0
480.61,1.5825,3.617,0.27507,0.2657,0,0,0
483.11,1.5928,3.6203,0.27823,0.26858,0,0,0
485.61,1.6029,3.6243,0.28117,0.27155,0,0,0
488.11,1.6134,3.628,0.28428,0.2749,0,0,0
490.61,1.6237,3.632,0.28739,0.27792,0,0,0
493.11,1.6341,3.6353,0.29096,0.28133,0,0,0
495.61,1.6442,3.6393,0.29429,0.28434,0,0,0
498.11,1.6551,3.642,0.29791,0.28764,0,0,0
500.61,1.6658,3.646,0.30122,0.29116,0,0,0
503.11,1.6766,3.6493,0.30494,0.29482,0,0,0
505.61,1.6876,3.652,0.30879,0.29851,0,0,0
508.11,1.6986,3.6557,0.31273,0.30237,0,0,0
510.61,1.7098,3.658,0.31645,0.30611,0,0,0
513.11,1.721,3.6607,0.32072,0.3104,0,0,0
515.61,1.7327,3.664,0.32488,0.31457,0,0,0
518.11,1.7439,3.6667,0.32991,0.31866,0,0,0
520.61,1.7558,3.6687,0.33432,0.32316,0,0,0
523.11,1.7676,3.671,0.33916,0.32765,0,0,0
525.61,1.7799,3.6737,0.34429,0.33226,0,0,0
528.11,1.7921,3.6747,0.34925,0.33778,0,0,0
530.61,1.8046,3.6763,0.35449,0.3427,0,0,0
533.11,1.8175,3.6773,0.36029,0.3482,0,0,0
535.61,1.8303,3.679,0.36611,0.35382,0,0,0
538.11,1.8437,3.679,0.3723,0.36021,0,0,0
540.61,1.8572,3.679,0.37835,0.36645,0,0,0
543.11,1.8712,3.6787,0.38492,0.37301,0,0,0
545.61,1.8853,3.6777,0.39173,0.37999,0,0,0
548.11,1.8999,3.6753,0.39834,0.38691,0,0,0
550.61,1.9154,3.672,0.40678,0.39452,0,0,0
553.11,1.9308,3.6673,0.41464,0.40312,0,0,0
555.61,1.9468,3.6597,0.42351,0.4122,0,0,0
558.11,1.9631,3.6497,0.4322,0.42228,0,0,0
560.61,1.9802,3.6347,0.44189,0.43207,0,0,0
563.11,1.9982,3.6093,0.45186,0.44481,0,0,0
565.61,2.0164,3.5867,0.46238,0.45832,0,0,0
568.11,2.0363,3.5436,0.47338,0.47918,0,0,0