Folder: ethz/polyN_optimization/results_exp/AA6014-T4 (part 5)

File: NT20_45_3.csv
Time[s],Displacement[mm],Force[kN],AxStrain_1,AxStrain_2,Thickness[mm],OuterWidth[mm],InnerWidth[mm]
0.62,0,-0.0044298,0,0,1.1135,20,10.123
3.12,0.0019,0.080423,3.3999e-05,0,0,0,0
5.62,0.003111,0.16615,0.00016399,0,0,0,0
8.12,0.003974,0.232,0.00010799,0,0,0,0
10.62,0.005767,0.30014,0.00020198,0,0,0,0
13.12,0.007614,0.37229,0.00026496,0,0,0,0
15.62,0.008917,0.44529,0.00022198,0,0,0,0
18.12,0.010364,0.52257,0.00022198,0,0,0,0
20.62,0.012099,0.59715,0.00047289,0,0,0,0
23.12,0.014634,0.677,0.00042991,0,0,0,0
25.62,0.01681,0.75385,0.00053386,0,0,0,0
28.12,0.018293,0.83315,0.00057384,0,0,0,0
30.62,0.019801,0.91086,0.00055085,0,0,0,0
33.12,0.022587,0.98885,0.00072474,0,0,0,0
35.62,0.025088,1.065,0.00082566,0,0,0,0
38.12,0.026619,1.1383,0.0007787,0,0,0,0
40.62,0.029413,1.2119,0.00080168,0,0,0,0
43.12,0.032598,1.2751,0.001396,0,0,0,0
45.62,0.039168,1.325,0.0028599,0,0,0,0
48.12,0.04732,1.3627,0.0039542,0,0,0,0
50.62,0.057418,1.3973,0.0047059,0,0,0,0
53.12,0.068007,1.427,0.0057107,0,0,0,0
55.62,0.079371,1.4554,0.0072824,0,0,0,0
58.12,0.090587,1.481,0.0084214,0,0,0,0
60.62,0.1021,1.5047,0.0088448,0,0,0,0
63.12,0.1147,1.5273,0.0098058,0,0,0,0
65.62,0.12622,1.5483,0.011141,0,0,0,0
68.12,0.13894,1.5693,0.012422,0,0,0,0
70.62,0.15107,1.5884,0.012833,0,0,0,0
73.12,0.16363,1.6073,0.013644,0,0,0,0
75.62,0.1768,1.6253,0.014814,0,0,0,0
78.12,0.1891,1.6437,0.016261,0,0,0,0
80.62,0.20256,1.661,0.016419,0,0,0,0
83.12,0.21511,1.677,0.017034,0,0,0,0
85.62,0.22921,1.694,0.018449,0,0,0,0
88.12,0.24218,1.709,0.019599,0,0,0,0
90.62,0.25616,1.7253,0.020036,0,0,0,0
93.12,0.26971,1.74,0.020714,0,0,0,0
95.62,0.28312,1.7553,0.02195,0,0,0,0
98.12,0.29743,1.77,0.023003,0,0,0,0
100.62,0.31112,1.784,0.023515,0,0,0,0
103.12,0.32552,1.7983,0.024233,0,0,0,0
105.62,0.33864,1.8113,0.025262,0,0,0,0
108.12,0.35325,1.8253,0.026296,0,0,0,0
110.62,0.36683,1.838,0.027027,0,0,0,0
113.12,0.38135,1.8507,0.027714,0,0,0,0
115.62,0.39474,1.8637,0.02866,0,0,0,0
118.12,0.4094,1.8763,0.029639,0,0,0,0
120.62,0.42317,1.8883,0.030552,0,0,0,0
123.12,0.43696,1.9003,0.031365,0,0,0,0
125.62,0.45157,1.912,0.032049,0,0,0,0
128.12,0.46537,1.923,0.033088,0,0,0,0
130.62,0.47981,1.935,0.034127,0,0,0,0
133.12,0.49376,1.946,0.034874,0,0,0,0
135.62,0.50865,1.9577,0.035457,0,0,0,0
138.12,0.52204,1.9683,0.036526,0,0,0,0
140.62,0.537,1.979,0.037529,0,0,0,0
143.12,0.55093,1.9897,0.038175,0,0,0,0
145.62,0.5657,2,0.03895,0,0,0,0
148.12,0.57994,2.01,0.039887,0,0,0,0
150.62,0.59426,2.02,0.040887,0,0,0,0
153.12,0.6087,2.03,0.041724,0,0,0,0
155.62,0.62311,2.0396,0.042464,0,0,0,0
158.12,0.63786,2.0493,0.043365,0,0,0,0
160.62,0.65212,2.059,0.04465,0,0,0,0
163.12,0.66718,2.0683,0.045325,0,0,0,0
165.62,0.68125,2.078,0.045966,0,0,0,0
168.12,0.69635,2.0873,0.046896,0,0,0,0
170.62,0.71033,2.096,0.047985,0,0,0,0
173.12,0.7257,2.105,0.048656,0,0,0,0
175.62,0.73953,2.1136,0.049392,0,0,0,0
178.12,0.75463,2.1223,0.05051,0,0,0,0
180.62,0.76904,2.1307,0.051339,0,0,0,0
183.12,0.78347,2.139,0.052232,0,0,0,0
185.62,0.79795,2.1473,0.053092,0,0,0,0
188.12,0.81234,2.1557,0.054016,0,0,0,0
190.62,0.82706,2.1637,0.054778,0,0,0,0
193.12,0.84106,2.1713,0.055605,0,0,0,0
195.62,0.85621,2.1793,0.056716,0,0,0,0
198.12,0.86978,2.187,0.057571,0,0,0,0
200.62,0.8851,2.1947,0.058238,0,0,0,0
203.12,0.89908,2.2023,0.059155,0,0,0,0
205.62,0.91443,2.2097,0.060262,0,0,0,0
208.12,0.92827,2.2167,0.061305,0,0,0,0
210.62,0.94309,2.2247,0.061905,0,0,0,0
213.12,0.95743,2.2317,0.062915,0,0,0,0
215.62,0.97218,2.2387,0.063923,0,0,0,0
218.12,0.98654,2.2453,0.064993,0,0,0,0
220.62,1.0012,2.2527,0.06578,0,0,0,0
223.12,1.0161,2.2593,0.066628,0,0,0,0
225.62,1.0301,2.2657,0.067759,0,0,0,0
228.12,1.0452,2.2727,0.068763,0,0,0,0
230.62,1.0592,2.279,0.069701,0,0,0,0
233.12,1.0741,2.2853,0.070516,0,0,0,0
235.62,1.0882,2.2917,0.071548,0,0,0,0
238.12,1.1033,2.298,0.072579,0,0,0,0
240.62,1.1177,2.304,0.073735,0,0,0,0
243.12,1.1328,2.3103,0.07467,0,0,0,0
245.62,1.1473,2.3167,0.07551,0,0,0,0
248.12,1.162,2.322,0.076661,0,0,0,0
250.62,1.1766,2.328,0.07778,0,0,0,0
253.12,1.1913,2.334,0.078619,0,0,0,0
255.62,1.206,2.34,0.07927,0,0,0,0
258.12,1.2204,2.345,0.080635,0,0,0,0
260.62,1.2351,2.351,0.081842,0,0,0,0
263.12,1.2494,2.3563,0.082521,0,0,0,0
265.62,1.2645,2.3616,0.083419,0,0,0,0
268.12,1.2782,2.367,0.084499,0,0,0,0
270.62,1.2935,2.3727,0.085856,0,0,0,0
273.12,1.3075,2.378,0.086656,0,0,0,0
275.62,1.3224,2.383,0.08755,0,0,0,0
278.12,1.3367,2.388,0.088718,0,0,0,0
280.62,1.3514,2.393,0.090099,0,0,0,0
283.12,1.366,2.398,0.090897,0,0,0,0
285.62,1.3804,2.4027,0.091786,0,0,0,0
288.12,1.3953,2.408,0.093133,0,0,0,0
290.62,1.4099,2.412,0.094478,0,0,0,0
293.12,1.4247,2.417,0.095393,0,0,0,0
295.62,1.4391,2.422,0.09637,0,0,0,0
298.12,1.4543,2.4267,0.097589,0,0,0,0
300.62,1.4686,2.4307,0.098837,0,0,0,0
303.12,1.4835,2.4353,0.10014,0,0,0,0
305.62,1.4977,2.4397,0.10108,0,0,0,0
308.12,1.5132,2.444,0.10233,0,0,0,0
310.62,1.5276,2.4486,0.1036,0,0,0,0
313.12,1.5428,2.453,0.1049,0,0,0,0
315.62,1.5565,2.457,0.10584,0,0,0,0
318.12,1.5714,2.461,0.10693,0,0,0,0
320.62,1.5862,2.465,0.10837,0,0,0,0
323.12,1.6011,2.4697,0.10964,0,0,0,0
325.62,1.6158,2.473,0.11093,0,0,0,0
328.12,1.6305,2.477,0.11213,0,0,0,0
330.62,1.6459,2.481,0.11348,0,0,0,0
333.12,1.6605,2.485,0.11489,0,0,0,0
335.62,1.676,2.488,0.11608,0,0,0,0
338.12,1.6905,2.492,0.11725,0,0,0,0
340.62,1.7057,2.496,0.11865,0,0,0,0
343.12,1.72,2.4993,0.1202,0,0,0,0
345.62,1.7354,2.5033,0.12139,0,0,0,0
348.12,1.7498,2.5067,0.12267,0,0,0,0
350.62,1.7651,2.5103,0.12412,0,0,0,0
353.12,1.7796,2.513,0.12569,0,0,0,0
355.62,1.7951,2.5167,0.12697,0,0,0,0
358.12,1.81,2.5203,0.12836,0,0,0,0
360.62,1.8256,2.523,0.12995,0,0,0,0
363.12,1.8403,2.5263,0.13125,0,0,0,0
365.62,1.8555,2.5293,0.13272,0,0,0,0
368.12,1.8705,2.5327,0.13425,0,0,0,0
370.62,1.8857,2.5353,0.13571,0,0,0,0
373.12,1.901,2.5383,0.13709,0,0,0,0
375.62,1.9158,2.5417,0.13858,0,0,0,0
378.12,1.9316,2.5443,0.1401,0,0,0,0
380.62,1.9456,2.547,0.14153,0,0,0,0
383.12,1.961,2.5503,0.1431,0,0,0,0
385.62,1.9757,2.5523,0.14487,0,0,0,0
388.12,1.9912,2.5553,0.14609,0,0,0,0
390.62,2.0056,2.5577,0.14786,0,0,0,0
393.12,2.0215,2.5607,0.14986,0,0,0,0
395.62,2.0363,2.5627,0.15139,0,0,0,0
398.12,2.0516,2.5653,0.15306,0,0,0,0
400.62,2.067,2.5673,0.15493,0,0,0,0
403.12,2.083,2.57,0.15691,0,0,0,0
405.62,2.0979,2.5723,0.15878,0,0,0,0
408.12,2.1134,2.5743,0.16041,0,0,0,0
410.62,2.1289,2.5767,0.16258,0,0,0,0
413.12,2.1445,2.579,0.16418,0,0,0,0
415.62,2.1601,2.581,0.16591,0,0,0,0
418.12,2.1758,2.583,0.16802,0,0,0,0
420.62,2.1916,2.585,0.17009,0,0,0,0
423.12,2.2069,2.587,0.17198,0,0,0,0
425.62,2.2224,2.5887,0.17407,0,0,0,0
428.12,2.2379,2.5907,0.17652,0,0,0,0
430.62,2.254,2.5923,0.17877,0,0,0,0
433.12,2.2694,2.5937,0.18093,0,0,0,0
435.62,2.2852,2.5957,0.18359,0,0,0,0
438.12,2.3012,2.5973,0.18585,0,0,0,0
440.62,2.3171,2.5983,0.1883,0,0,0,0
443.12,2.3327,2.6,0.19094,0,0,0,0
445.62,2.3489,2.601,0.19363,0,0,0,0
448.12,2.3644,2.603,0.19603,0,0,0,0
450.62,2.3808,2.604,0.19859,0,0,0,0
453.12,2.3963,2.605,0.20107,0,0,0,0
455.62,2.4123,2.6063,0.20389,0,0,0,0
458.12,2.4279,2.6073,0.20657,0,0,0,0
460.62,2.4442,2.6083,0.20938,0,0,0,0
463.12,2.4604,2.609,0.21245,0,0,0,0
465.62,2.476,2.6097,0.21567,0,0,0,0
468.12,2.4916,2.6107,0.21875,0,0,0,0
470.62,2.5081,2.6113,0.22207,0,0,0,0
473.12,2.5239,2.612,0.22545,0,0,0,0
475.62,2.5404,2.612,0.22912,0,0,0,0
478.12,2.5564,2.612,0.23285,0,0,0,0
480.62,2.573,2.6123,0.23662,0,0,0,0
483.12,2.589,2.6127,0.24077,0,0,0,0
485.62,2.6056,2.6127,0.24469,0,0,0,0
488.12,2.6223,2.612,0.24875,0,0,0,0
490.62,2.6386,2.612,0.25304,0,0,0,0
493.12,2.6548,2.612,0.25728,0,0,0,0
495.62,2.6715,2.611,0.26181,0,0,0,0
498.12,2.688,2.61,0.26676,0,0,0,0
500.62,2.7046,2.609,0.27161,0,0,0,0
503.12,2.7208,2.608,0.27674,0,0,0,0
505.62,2.7376,2.6064,0.28199,0,0,0,0
508.12,2.754,2.6043,0.28747,0,0,0,0
510.62,2.771,2.6023,0.29342,0,0,0,0
513.12,2.7876,2.5997,0.29973,0,0,0,0
515.62,2.8047,2.5977,0.30593,0,0,0,0
518.12,2.821,2.5943,0.31256,0,0,0,0
520.62,2.8382,2.591,0.31936,0,0,0,0
523.12,2.8547,2.5866,0.32641,0,0,0,0
525.62,2.8718,2.5816,0.33379,0,0,0,0
528.12,2.8885,2.5767,0.34122,0,0,0,0
530.62,2.9061,2.5703,0.34899,0,0,0,0
533.12,2.9229,2.5634,0.35689,0,0,0,0
535.62,2.9405,2.555,0.36492,0,0,0,0
538.12,2.9576,2.546,0.37307,0,0,0,0
540.62,2.9753,2.5353,0.38154,0,0,0,0
543.12,2.9923,2.5233,0.39033,0,0,0,0
545.62,3.0104,2.5094,0.3993,0,0,0,0
548.12,3.0279,2.4944,0.40868,0,0,0,0
550.62,3.0462,2.4763,0.41807,0,0,0,0
553.12,3.0646,2.4567,0.42763,0,0,0,0
555.62,3.0835,2.4334,0.43729,0,0,0,0
558.12,3.102,2.4077,0.44727,0,0,0,0
560.62,3.122,2.3753,0.45805,0,0,0,0
561.12,3.1258,2.3644,0.46039,0,0,0,0

File: NT20_90_3.csv
Time[s],Displacement[mm],Force[kN],AxStrain_1,AxStrain_2,Thickness[mm],OuterWidth[mm],InnerWidth[mm]
0.62,0,-0.0042109,0,0,1.1177,20,10.066
3.12,0.00115,0.079427,0.00013199,0,0,0,0
5.62,0.002842,0.16814,8.5996e-05,0,0,0,0
8.12,0.004359,0.23772,3.9999e-05,0,0,0,0
10.62,0.006393,0.30429,0.00013599,0,0,0,0
13.12,0.008331,0.375,0.00024497,0,0,0,0
15.62,0.009675,0.44815,0.0004569,0,0,0,0
18.12,0.011126,0.52485,0.00032595,0,0,0,0
20.62,0.012532,0.60114,0.0004529,0,0,0,0
23.12,0.015201,0.68015,0.00060082,0,0,0,0
25.62,0.017548,0.756,0.00072174,0,0,0,0
28.12,0.019052,0.83414,0.00073473,0,0,0,0
30.62,0.020882,0.90886,0.00069776,0,0,0,0
33.12,0.02301,0.98571,0.00051387,0,0,0,0
35.62,0.025797,1.059,0.00087562,0,0,0,0
38.12,0.027825,1.1319,0.0009995,0,0,0,0
40.62,0.03004,1.2034,0.00095255,0,0,0,0
43.12,0.033233,1.2704,0.0010435,0,0,0,0
45.62,0.03752,1.331,0.0019491,0,0,0,0
48.12,0.045387,1.3683,0.0039333,0,0,0,0
50.62,0.055394,1.4031,0.0046661,0,0,0,0
53.12,0.065483,1.4336,0.0057614,0,0,0,0
55.62,0.076263,1.462,0.0073926,0,0,0,0
58.12,0.088151,1.4877,0.0088646,0,0,0,0
60.62,0.098925,1.5116,0.0091966,0,0,0,0
63.12,0.11162,1.5343,0.010137,0,0,0,0
65.62,0.12326,1.5567,0.011556,0,0,0,0
68.12,0.13556,1.5776,0.01289,0,0,0,0
70.62,0.14774,1.5973,0.013347,0,0,0,0
73.12,0.15988,1.6167,0.01384,0,0,0,0
75.62,0.17318,1.6346,0.015213,0,0,0,0
78.12,0.18532,1.653,0.016456,0,0,0,0
80.62,0.19882,1.67,0.016855,0,0,0,0
83.12,0.21157,1.6873,0.017294,0,0,0,0
85.62,0.22536,1.704,0.018554,0,0,0,0
88.12,0.23865,1.72,0.019848,0,0,0,0
90.62,0.25186,1.7366,0.020174,0,0,0,0
93.12,0.2658,1.7517,0.020657,0,0,0,0
95.62,0.27907,1.767,0.021827,0,0,0,0
98.12,0.2932,1.7816,0.023016,0,0,0,0
100.62,0.30649,1.7967,0.023809,0,0,0,0
103.12,0.32077,1.8103,0.024363,0,0,0,0
105.62,0.33425,1.8246,0.025342,0,0,0,0
108.12,0.34836,1.838,0.026386,0,0,0,0
110.62,0.36224,1.8517,0.026975,0,0,0,0
113.12,0.37617,1.8647,0.027746,0,0,0,0
115.62,0.39005,1.8773,0.028463,0,0,0,0
118.12,0.4041,1.8903,0.029604,0,0,0,0
120.62,0.41829,1.9023,0.030126,0,0,0,0
123.12,0.43178,1.9143,0.031135,0,0,0,0
125.62,0.44649,1.9267,0.031818,0,0,0,0
128.12,0.45987,1.9383,0.032826,0,0,0,0
130.62,0.47466,1.95,0.033541,0,0,0,0
133.12,0.48829,1.9617,0.034319,0,0,0,0
135.62,0.50296,1.9733,0.034968,0,0,0,0
138.12,0.51654,1.984,0.035876,0,0,0,0
140.62,0.53075,1.995,0.036653,0,0,0,0
143.12,0.54486,2.0053,0.037591,0,0,0,0
145.62,0.5589,2.016,0.038205,0,0,0,0
148.12,0.57354,2.0267,0.039012,0,0,0,0
150.62,0.58733,2.037,0.040013,0,0,0,0
153.12,0.60208,2.047,0.040754,0,0,0,0
155.62,0.61571,2.057,0.041528,0,0,0,0
158.12,0.63064,2.067,0.042526,0,0,0,0
160.62,0.64448,2.0767,0.043394,0,0,0,0
163.12,0.65932,2.086,0.043908,0,0,0,0
165.62,0.67329,2.096,0.04484,0,0,0,0
168.12,0.6878,2.105,0.045674,0,0,0,0
170.62,0.70216,2.1143,0.046732,0,0,0,0
173.12,0.71637,2.1236,0.047244,0,0,0,0
175.62,0.73093,2.1327,0.048204,0,0,0,0
178.12,0.74491,2.141,0.0491,0,0,0,0
180.62,0.75966,2.15,0.049994,0,0,0,0
183.12,0.77319,2.158,0.05057,0,0,0,0
185.62,0.78805,2.167,0.051463,0,0,0,0
188.12,0.80165,2.175,0.052515,0,0,0,0
190.62,0.81648,2.1827,0.053088,0,0,0,0
193.12,0.83025,2.1913,0.053883,0,0,0,0
195.62,0.84471,2.199,0.054805,0,0,0,0
198.12,0.85851,2.2067,0.055917,0,0,0,0
200.62,0.87267,2.2147,0.056551,0,0,0,0
203.12,0.88677,2.222,0.057376,0,0,0,0
205.62,0.90087,2.2297,0.058359,0,0,0,0
208.12,0.91548,2.2367,0.059245,0,0,0,0
210.62,0.92905,2.244,0.059846,0,0,0,0
213.12,0.94391,2.2513,0.060573,0,0,0,0
215.62,0.95772,2.2583,0.061583,0,0,0,0
218.12,0.97239,2.265,0.062499,0,0,0,0
220.62,0.98616,2.2724,0.063256,0,0,0,0
223.12,1.0005,2.279,0.064012,0,0,0,0
225.62,1.0145,2.2857,0.064861,0,0,0,0
228.12,1.0288,2.2923,0.065994,0,0,0,0
230.62,1.0429,2.2987,0.066811,0,0,0,0
233.12,1.0569,2.3053,0.067501,0,0,0,0
235.62,1.0712,2.3117,0.068348,0,0,0,0
238.12,1.0851,2.318,0.069476,0,0,0,0
240.62,1.0999,2.3243,0.070477,0,0,0,0
243.12,1.1136,2.331,0.071135,0,0,0,0
245.62,1.1282,2.3367,0.071948,0,0,0,0
248.12,1.1419,2.3427,0.072947,0,0,0,0
250.62,1.1566,2.349,0.074007,0,0,0,0
253.12,1.1705,2.355,0.074724,0,0,0,0
255.62,1.1845,2.361,0.075627,0,0,0,0
258.12,1.1986,2.3663,0.076716,0,0,0,0
260.62,1.2125,2.372,0.077773,0,0,0,0
263.12,1.2266,2.3776,0.078611,0,0,0,0
265.62,1.2406,2.383,0.079386,0,0,0,0
268.12,1.2549,2.389,0.080502,0,0,0,0
270.62,1.2684,2.394,0.081554,0,0,0,0
273.12,1.2828,2.4,0.082699,0,0,0,0
275.62,1.2964,2.405,0.083317,0,0,0,0
278.12,1.311,2.41,0.08449,0,0,0,0
280.62,1.3247,2.415,0.085569,0,0,0,0
283.12,1.3392,2.4206,0.086524,0,0,0,0
285.62,1.3533,2.4253,0.087386,0,0,0,0
288.12,1.3677,2.4307,0.088308,0,0,0,0
290.62,1.3822,2.435,0.089445,0,0,0,0
293.12,1.396,2.44,0.090611,0,0,0,0
295.62,1.4108,2.445,0.091378,0,0,0,0
298.12,1.4249,2.45,0.092357,0,0,0,0
300.62,1.4394,2.4543,0.09355,0,0,0,0
303.12,1.4535,2.459,0.094774,0,0,0,0
305.62,1.4681,2.464,0.095688,0,0,0,0
308.12,1.4822,2.4687,0.096665,0,0,0,0
310.62,1.4969,2.473,0.097852,0,0,0,0
313.12,1.5109,2.477,0.099282,0,0,0,0
315.62,1.5252,2.4817,0.10019,0,0,0,0
318.12,1.5396,2.486,0.10132,0,0,0,0
320.62,1.5542,2.49,0.10259,0,0,0,0
323.12,1.5687,2.4947,0.10365,0,0,0,0
325.62,1.5831,2.4984,0.10471,0,0,0,0
328.12,1.5982,2.503,0.10586,0,0,0,0
330.62,1.612,2.507,0.107,0,0,0,0
333.12,1.6269,2.511,0.1083,0,0,0,0
335.62,1.641,2.5143,0.10957,0,0,0,0
338.12,1.6557,2.5183,0.11068,0,0,0,0
340.62,1.6699,2.5227,0.11173,0,0,0,0
343.12,1.685,2.5263,0.11314,0,0,0,0
345.62,1.6988,2.5303,0.11434,0,0,0,0
348.12,1.7135,2.534,0.11566,0,0,0,0
350.62,1.728,2.5373,0.11703,0,0,0,0
353.12,1.7428,2.541,0.11828,0,0,0,0
355.62,1.7571,2.5443,0.11951,0,0,0,0
358.12,1.7722,2.548,0.12076,0,0,0,0
360.62,1.7871,2.551,0.1223,0,0,0,0
363.12,1.8019,2.5547,0.12355,0,0,0,0
365.62,1.8168,2.558,0.12477,0,0,0,0
368.12,1.8311,2.5613,0.1261,0,0,0,0
370.62,1.8464,2.5643,0.12775,0,0,0,0
373.12,1.861,2.5673,0.12902,0,0,0,0
375.62,1.8763,2.5707,0.13023,0,0,0,0
378.12,1.8908,2.5737,0.13171,0,0,0,0
380.62,1.906,2.5763,0.13335,0,0,0,0
383.12,1.9203,2.5793,0.13482,0,0,0,0
385.62,1.9357,2.5823,0.13626,0,0,0,0
388.12,1.9502,2.5853,0.13772,0,0,0,0
390.62,1.9655,2.588,0.13971,0,0,0,0
393.12,1.9802,2.5907,0.14134,0,0,0,0
395.62,1.9954,2.593,0.14294,0,0,0,0
398.12,2.0104,2.5953,0.14466,0,0,0,0
400.62,2.0257,2.5983,0.14634,0,0,0,0
403.12,2.041,2.6003,0.14811,0,0,0,0
405.62,2.0562,2.6033,0.14976,0,0,0,0
408.12,2.0715,2.6053,0.15155,0,0,0,0
410.62,2.0867,2.6077,0.15342,0,0,0,0
413.12,2.1022,2.6097,0.15507,0,0,0,0
415.62,2.1174,2.6123,0.15679,0,0,0,0
418.12,2.1332,2.6143,0.15874,0,0,0,0
420.62,2.1482,2.6163,0.16068,0,0,0,0
423.12,2.1638,2.6183,0.16248,0,0,0,0
425.62,2.1787,2.6203,0.16456,0,0,0,0
428.12,2.1945,2.6223,0.16661,0,0,0,0
430.62,2.2099,2.6237,0.16894,0,0,0,0
433.12,2.2257,2.6257,0.17112,0,0,0,0
435.62,2.2409,2.6273,0.17341,0,0,0,0
438.12,2.257,2.6283,0.17572,0,0,0,0
440.62,2.2724,2.63,0.17828,0,0,0,0
443.12,2.2884,2.6317,0.18053,0,0,0,0
445.62,2.304,2.633,0.18305,0,0,0,0
448.12,2.32,2.634,0.18573,0,0,0,0
450.62,2.3351,2.636,0.18829,0,0,0,0
453.12,2.3514,2.637,0.19096,0,0,0,0
455.62,2.3668,2.6377,0.19356,0,0,0,0
458.12,2.3828,2.6387,0.19635,0,0,0,0
460.61,2.3985,2.6393,0.19933,0,0,0,0
463.11,2.4147,2.64,0.2027,0,0,0,0
465.62,2.4303,2.6403,0.2058,0,0,0,0
468.12,2.4465,2.6413,0.20913,0,0,0,0
470.61,2.4625,2.642,0.21288,0,0,0,0
473.12,2.4785,2.642,0.21632,0,0,0,0
475.61,2.495,2.642,0.22015,0,0,0,0
478.12,2.511,2.642,0.22405,0,0,0,0
480.61,2.5272,2.6417,0.22831,0,0,0,0
483.11,2.5436,2.641,0.23255,0,0,0,0
485.61,2.5606,2.6407,0.2368,0,0,0,0
488.12,2.5769,2.639,0.2418,0,0,0,0
490.61,2.5933,2.6383,0.24674,0,0,0,0
493.11,2.6096,2.637,0.25198,0,0,0,0
495.62,2.6263,2.6353,0.25726,0,0,0,0
498.11,2.6428,2.6333,0.26262,0,0,0,0
500.61,2.6596,2.631,0.2686,0,0,0,0
503.11,2.6761,2.6283,0.27479,0,0,0,0
505.61,2.6931,2.6243,0.28146,0,0,0,0
508.12,2.7101,2.6203,0.28813,0,0,0,0
510.62,2.7272,2.616,0.2951,0,0,0,0
513.12,2.7442,2.6107,0.30253,0,0,0,0
515.61,2.7613,2.604,0.31012,0,0,0,0
518.11,2.7783,2.5973,0.31762,0,0,0,0
520.61,2.7958,2.5897,0.32544,0,0,0,0
523.12,2.8129,2.581,0.33359,0,0,0,0
525.61,2.8303,2.571,0.34172,0,0,0,0
528.11,2.8476,2.56,0.35001,0,0,0,0
530.61,2.8656,2.5477,0.35877,0,0,0,0
533.11,2.8832,2.5344,0.36782,0,0,0,0
535.61,2.901,2.519,0.37664,0,0,0,0
538.11,2.9188,2.5027,0.38618,0,0,0,0
540.61,2.9369,2.4847,0.39611,0,0,0,0
543.11,2.9551,2.4647,0.40584,0,0,0,0
545.61,2.9738,2.4424,0.4158,0,0,0,0
548.11,2.9924,2.418,0.42658,0,0,0,0
550.61,3.0114,2.39,0.43729,0,0,0,0
553.11,3.0309,2.3571,0.45636,0,0,0,0
554.11,3.0393,2.3407,0.46186,0,0,0,0