Folder: ethz/polyN_optimization/results_exp/AA6014-T4 (part 3)

File: NT6_00_3.csv
Time[s],Displacement[mm],Force[kN],AxStrain_1,AxStrain_2,Thickness[mm],OuterWidth[mm],InnerWidth[mm]
0.59,0,-0.0063603,0,0,1.0996,20,10
2.59,0.001746,0.062436,-1.3e-05,0,0,0,0
4.59,0.002769,0.13815,-5.2001e-05,0,0,0,0
6.59,0.003827,0.20071,0.00010799,0,0,0,0
8.59,0.004863,0.24529,-6e-06,0,0,0,0
10.59,0.006397,0.305,0.00027996,0,0,0,0
12.59,0.008158,0.36385,0.00026397,0,0,0,0
14.59,0.00893,0.42215,0.00028896,0,0,0,0
16.59,0.010048,0.482,0.00033894,0,0,0,0
18.59,0.010867,0.54429,0.00033894,0,0,0,0
20.59,0.012432,0.60629,0.00030895,0,0,0,0
22.59,0.014366,0.66915,0.00048288,0,0,0,0
24.59,0.016293,0.73485,0.00050687,0,0,0,0
26.59,0.017333,0.797,0.00052386,0,0,0,0
28.59,0.018142,0.861,0.00060082,0,0,0,0
30.59,0.019502,0.92385,0.00057084,0,0,0,0
32.59,0.021714,0.98486,0.00071774,0,0,0,0
34.59,0.023772,1.0473,0.00082266,0,0,0,0
36.59,0.025317,1.1081,0.00071175,0,0,0,0
38.59,0.026848,1.169,0.00059782,0,0,0,0
40.59,0.028335,1.2279,0.00083565,0,0,0,0
42.59,0.030249,1.2856,0.0010335,0,0,0,0
44.59,0.032985,1.3427,0.0011613,0,0,0,0
46.59,0.035613,1.3971,0.0015029,0,0,0,0
48.59,0.039098,1.4441,0.0017814,0,0,0,0
50.59,0.044779,1.4853,0.0025148,0,0,0,0
52.59,0.050741,1.5207,0.0033683,0,0,0,0
54.59,0.057146,1.5527,0.0044949,0,0,0,0
56.59,0.064653,1.5819,0.0057713,0,0,0,0
58.59,0.072284,1.6089,0.006468,0,0,0,0
60.59,0.080147,1.6349,0.0071156,0,0,0,0
62.59,0.088328,1.6583,0.007862,0,0,0,0
64.59,0.097275,1.6813,0.0090737,0,0,0,0
66.59,0.10561,1.703,0.01026,0,0,0,0
68.59,0.11453,1.724,0.011031,0,0,0,0
70.59,0.12452,1.7437,0.011469,0,0,0,0
72.59,0.13362,1.7634,0.01203,0,0,0,0
74.59,0.14284,1.7826,0.012872,0,0,0,0
76.59,0.15276,1.801,0.01424,0,0,0,0
78.59,0.16259,1.8194,0.015018,0,0,0,0
80.59,0.17191,1.837,0.015232,0,0,0,0
82.59,0.18254,1.8543,0.015702,0,0,0,0
84.59,0.19199,1.8707,0.016663,0,0,0,0
86.59,0.20183,1.8874,0.017845,0,0,0,0
88.59,0.21285,1.9033,0.018471,0,0,0,0
90.59,0.22273,1.919,0.019064,0,0,0,0
92.59,0.23265,1.9343,0.019357,0,0,0,0
94.59,0.24344,1.9493,0.020417,0,0,0,0
96.59,0.25339,1.9644,0.02141,0,0,0,0
98.59,0.26378,1.979,0.022037,0,0,0,0
100.59,0.27439,1.9927,0.02252,0,0,0,0
102.59,0.28447,2.007,0.023239,0,0,0,0
104.59,0.29531,2.021,0.023882,0,0,0,0
106.59,0.30617,2.0337,0.02472,0,0,0,0
108.59,0.31629,2.0467,0.025345,0,0,0,0
110.59,0.32726,2.0596,0.026052,0,0,0,0
112.59,0.338,2.073,0.026732,0,0,0,0
114.59,0.34855,2.0854,0.027549,0,0,0,0
116.59,0.35972,2.0973,0.028169,0,0,0,0
118.59,0.37053,2.109,0.028855,0,0,0,0
120.59,0.38112,2.122,0.029637,0,0,0,0
122.59,0.3925,2.133,0.030322,0,0,0,0
124.59,0.40321,2.1446,0.031135,0,0,0,0
126.59,0.41403,2.1557,0.031656,0,0,0,0
128.59,0.42556,2.1669,0.032468,0,0,0,0
130.59,0.43632,2.1777,0.033086,0,0,0,0
132.59,0.44767,2.1877,0.033963,0,0,0,0
134.59,0.45849,2.199,0.034449,0,0,0,0
136.59,0.46918,2.209,0.035292,0,0,0,0
138.59,0.48071,2.2197,0.03581,0,0,0,0
140.59,0.49176,2.2293,0.03662,0,0,0,0
142.59,0.50264,2.239,0.0373,0,0,0,0
144.59,0.5142,2.2487,0.037881,0,0,0,0
146.59,0.52501,2.2583,0.038753,0,0,0,0
148.59,0.53632,2.2673,0.039497,0,0,0,0
150.59,0.54766,2.2766,0.040077,0,0,0,0
152.59,0.55866,2.286,0.040754,0,0,0,0
154.59,0.57001,2.295,0.041366,0,0,0,0
156.59,0.58141,2.304,0.042171,0,0,0,0
158.59,0.59249,2.3123,0.042911,0,0,0,0
160.59,0.60429,2.3213,0.04349,0,0,0,0
162.59,0.61548,2.33,0.044197,0,0,0,0
164.59,0.62659,2.338,0.044807,0,0,0,0
166.59,0.63849,2.3463,0.045641,0,0,0,0
168.59,0.64953,2.355,0.046282,0,0,0,0
170.59,0.6608,2.3627,0.047244,0,0,0,0
172.59,0.67284,2.3706,0.047915,0,0,0,0
174.59,0.68374,2.3787,0.048588,0,0,0,0
176.59,0.69548,2.3863,0.049323,0,0,0,0
178.59,0.70704,2.394,0.050218,0,0,0,0
180.59,0.71824,2.4017,0.050952,0,0,0,0
182.59,0.73009,2.4087,0.05159,0,0,0,0
184.59,0.74125,2.416,0.05245,0,0,0,0
186.59,0.75252,2.423,0.053023,0,0,0,0
188.59,0.76457,2.4303,0.053946,0,0,0,0
190.59,0.77549,2.4377,0.054773,0,0,0,0
192.59,0.78714,2.4447,0.055408,0,0,0,0
194.59,0.79888,2.4513,0.056424,0,0,0,0
196.59,0.81003,2.4583,0.05709,0,0,0,0
198.59,0.82198,2.465,0.057883,0,0,0,0
200.59,0.8336,2.4717,0.058643,0,0,0,0
202.59,0.84477,2.4783,0.059529,0,0,0,0
204.59,0.85675,2.4846,0.060478,0,0,0,0
206.59,0.86818,2.4913,0.061172,0,0,0,0
208.59,0.87963,2.4973,0.062151,0,0,0,0
210.59,0.89155,2.504,0.062845,0,0,0,0
212.59,0.90284,2.5097,0.063728,0,0,0,0
214.59,0.91483,2.516,0.064609,0,0,0,0
216.59,0.92639,2.522,0.065615,0,0,0,0
218.59,0.93771,2.5283,0.066495,0,0,0,0
220.59,0.94942,2.5343,0.067155,0,0,0,0
222.59,0.96083,2.54,0.068033,0,0,0,0
224.59,0.97237,2.5453,0.069005,0,0,0,0
226.59,0.98445,2.551,0.069851,0,0,0,0
228.59,0.99542,2.5567,0.071008,0,0,0,0
230.59,1.0072,2.5627,0.071665,0,0,0,0
232.59,1.0189,2.5683,0.072665,0,0,0,0
234.59,1.0315,2.5733,0.073539,0,0,0,0
236.59,1.0428,2.579,0.07463,0,0,0,0
238.59,1.0541,2.584,0.075626,0,0,0,0
240.59,1.066,2.5893,0.076683,0,0,0,0
242.59,1.0782,2.5943,0.077553,0,0,0,0
244.59,1.0895,2.5993,0.078392,0,0,0,0
246.59,1.1017,2.6047,0.07951,0,0,0,0
248.59,1.1137,2.6096,0.080625,0,0,0,0
250.59,1.1248,2.615,0.081708,0,0,0,0
252.59,1.1372,2.619,0.082852,0,0,0,0
254.59,1.1488,2.6247,0.08381,0,0,0,0
256.59,1.1604,2.6286,0.084859,0,0,0,0
258.59,1.1726,2.6333,0.086,0,0,0,0
260.59,1.184,2.6377,0.087262,0,0,0,0
262.59,1.1958,2.642,0.088492,0,0,0,0
264.59,1.2079,2.6467,0.089505,0,0,0,0
266.59,1.2192,2.651,0.09061,0,0,0,0
268.59,1.2313,2.6557,0.091744,0,0,0,0
270.59,1.243,2.6594,0.092998,0,0,0,0
272.59,1.2546,2.6637,0.09416,0,0,0,0
274.59,1.2669,2.6676,0.095474,0,0,0,0
276.59,1.2785,2.672,0.096694,0,0,0,0
278.59,1.2904,2.6757,0.097881,0,0,0,0
280.59,1.3028,2.6793,0.099159,0,0,0,0
282.59,1.3143,2.6837,0.10044,0,0,0,0
284.59,1.3267,2.6863,0.10183,0,0,0,0
286.59,1.339,2.691,0.10322,0,0,0,0
288.59,1.3506,2.694,0.10462,0,0,0,0
290.59,1.363,2.6977,0.10595,0,0,0,0
292.59,1.3748,2.7013,0.10733,0,0,0,0
294.59,1.3873,2.7047,0.10887,0,0,0,0
296.59,1.3997,2.7073,0.1105,0,0,0,0
298.59,1.4114,2.711,0.11209,0,0,0,0
300.59,1.4238,2.714,0.11338,0,0,0,0
302.59,1.4357,2.7173,0.11496,0,0,0,0
304.59,1.4477,2.72,0.11661,0,0,0,0
306.59,1.4602,2.723,0.11843,0,0,0,0
308.59,1.472,2.7257,0.11992,0,0,0,0
310.59,1.4843,2.7287,0.12173,0,0,0,0
312.59,1.4967,2.731,0.12355,0,0,0,0
314.59,1.5084,2.7337,0.12538,0,0,0,0
316.59,1.5214,2.7363,0.12737,0,0,0,0
318.59,1.5336,2.7387,0.12934,0,0,0,0
320.59,1.5458,2.7407,0.13147,0,0,0,0
322.59,1.5587,2.743,0.13347,0,0,0,0
324.59,1.5706,2.745,0.13549,0,0,0,0
326.59,1.5834,2.7467,0.13783,0,0,0,0
328.59,1.5959,2.7487,0.1402,0,0,0,0
330.59,1.6081,2.7503,0.14247,0,0,0,0
332.59,1.6211,2.752,0.14477,0,0,0,0
334.59,1.6331,2.7537,0.14735,0,0,0,0
336.59,1.6458,2.7547,0.14978,0,0,0,0
338.59,1.6585,2.756,0.15253,0,0,0,0
340.59,1.671,2.757,0.15549,0,0,0,0
342.59,1.6839,2.7577,0.15822,0,0,0,0
344.59,1.6966,2.7587,0.16128,0,0,0,0
346.59,1.7093,2.759,0.1645,0,0,0,0
348.59,1.7222,2.7597,0.16777,0,0,0,0
350.59,1.735,2.759,0.17143,0,0,0,0
352.59,1.7485,2.759,0.17512,0,0,0,0
354.59,1.7612,2.7587,0.17884,0,0,0,0
356.59,1.7742,2.758,0.18315,0,0,0,0
358.59,1.7877,2.757,0.18742,0,0,0,0
360.59,1.8005,2.7557,0.19195,0,0,0,0
362.59,1.8141,2.754,0.19662,0,0,0,0
364.59,1.8272,2.7517,0.20168,0,0,0,0
366.59,1.8406,2.749,0.20674,0,0,0,0
368.59,1.8543,2.7457,0.21211,0,0,0,0
370.59,1.8673,2.742,0.21755,0,0,0,0
372.59,1.8813,2.7376,0.22339,0,0,0,0
374.59,1.8942,2.7327,0.22955,0,0,0,0
376.59,1.9089,2.7267,0.23588,0,0,0,0
378.59,1.9221,2.72,0.24238,0,0,0,0
380.59,1.9357,2.712,0.24937,0,0,0,0
382.59,1.9498,2.7037,0.25612,0,0,0,0
384.59,1.9636,2.694,0.26335,0,0,0,0
386.59,1.9778,2.6827,0.2709,0,0,0,0
388.59,1.9923,2.6714,0.27833,0,0,0,0
390.59,2.006,2.6573,0.2859,0,0,0,0
392.59,2.0212,2.643,0.29381,0,0,0,0
394.59,2.0353,2.6267,0.30204,0,0,0,0
396.59,2.0503,2.609,0.31017,0,0,0,0
398.59,2.0656,2.5893,0.3186,0,0,0,0
400.59,2.0802,2.5687,0.32718,0,0,0,0
402.59,2.0959,2.5457,0.33608,0,0,0,0
404.59,2.1109,2.52,0.34511,0,0,0,0
406.59,2.1268,2.4926,0.35453,0,0,0,0
408.59,2.1424,2.4609,0.36418,0,0,0,0
410.59,2.159,2.4259,0.3743,0,0,0,0
412.09,2.1715,2.3953,0.38247,0,0,0,0

File: NT6_45_2.csv
Time[s],Displacement[mm],Force[kN],AxStrain_1,AxStrain_2,Thickness[mm],OuterWidth[mm],InnerWidth[mm]
0.63,0,-0.0050833,0,0,1.1187,20,10
2.63,0.001696,0.05771,0.00012399,0,0,0,0
4.63,0.002675,0.139,1.7e-05,0,0,0,0
6.63,0.003925,0.21057,0.00018298,0,0,0,0
8.63,0.004799,0.25872,3.8999e-05,0,0,0,0
10.63,0.005763,0.31214,2.5e-05,0,0,0,0
12.63,0.007584,0.36915,0.00010399,0,0,0,0
14.63,0.008382,0.42857,0.00014399,0,0,0,0
16.63,0.009414,0.49057,0.00015399,0,0,0,0
18.63,0.010454,0.553,0.00014799,0,0,0,0
20.63,0.011623,0.61543,0.00022797,0,0,0,0
22.63,0.013509,0.67985,0.00021798,0,0,0,0
24.63,0.015551,0.74386,0.00047689,0,0,0,0
26.63,0.016927,0.80815,0.00034194,0,0,0,0
28.63,0.01737,0.87014,0.00040592,0,0,0,0
30.63,0.019237,0.93343,0.00058083,0,0,0,0
32.63,0.020852,0.99557,0.00046689,0,0,0,0
34.63,0.022668,1.0589,0.00064779,0,0,0,0
36.63,0.024665,1.1197,0.00058783,0,0,0,0
38.63,0.026445,1.1799,0.00080168,0,0,0,0
40.63,0.028056,1.2391,0.00087562,0,0,0,0
42.63,0.030668,1.2949,0.00086263,0,0,0,0
44.63,0.033952,1.3469,0.0014559,0,0,0,0
46.63,0.038537,1.3871,0.0024041,0,0,0,0
48.63,0.044799,1.4227,0.0035856,0,0,0,0
50.63,0.052131,1.4543,0.0043416,0,0,0,0
52.63,0.059983,1.484,0.0051636,0,0,0,0
54.63,0.067517,1.511,0.0064521,0,0,0,0
56.63,0.076393,1.5357,0.0079622,0,0,0,0
58.63,0.084883,1.5604,0.0086049,0,0,0,0
60.63,0.09333,1.5823,0.0090836,0,0,0,0
62.63,0.10241,1.6046,0.0098681,0,0,0,0
64.63,0.11154,1.625,0.011011,0,0,0,0
66.63,0.12029,1.6454,0.012316,0,0,0,0
68.63,0.13006,1.6646,0.013158,0,0,0,0
70.63,0.14034,1.6836,0.013767,0,0,0,0
72.63,0.14919,1.702,0.014287,0,0,0,0
74.63,0.1592,1.7197,0.015193,0,0,0,0
76.63,0.1696,1.7374,0.016551,0,0,0,0
78.63,0.17891,1.754,0.017377,0,0,0,0
80.63,0.18901,1.7703,0.017849,0,0,0,0
82.63,0.20005,1.7864,0.018235,0,0,0,0
84.63,0.20955,1.8024,0.01948,0,0,0,0
86.63,0.22076,1.818,0.020445,0,0,0,0
88.63,0.23107,1.833,0.021438,0,0,0,0
90.63,0.24103,1.848,0.022065,0,0,0,0
92.63,0.25217,1.8627,0.022722,0,0,0,0
94.63,0.26262,1.8777,0.023551,0,0,0,0
96.63,0.27314,1.891,0.024493,0,0,0,0
98.63,0.28431,1.905,0.025314,0,0,0,0
100.63,0.2946,1.9187,0.025982,0,0,0,0
102.63,0.30531,1.9317,0.026884,0,0,0,0
104.63,0.31656,1.9443,0.027783,0,0,0,0
106.63,0.32667,1.9573,0.028517,0,0,0,0
108.63,0.33772,1.9697,0.029205,0,0,0,0
110.63,0.34866,1.982,0.030096,0,0,0,0
112.63,0.3591,1.994,0.030978,0,0,0,0
114.63,0.37069,2.006,0.031788,0,0,0,0
116.63,0.38148,2.0176,0.032537,0,0,0,0
118.63,0.39211,2.029,0.033284,0,0,0,0
120.63,0.4037,2.0407,0.034161,0,0,0,0
122.63,0.41453,2.0513,0.035069,0,0,0,0
124.63,0.42547,2.0627,0.035749,0,0,0,0
126.63,0.43716,2.0737,0.036591,0,0,0,0
128.63,0.44776,2.084,0.037239,0,0,0,0
130.63,0.4593,2.0947,0.038435,0,0,0,0
132.63,0.47065,2.1043,0.039113,0,0,0,0
134.63,0.48164,2.1153,0.039726,0,0,0,0
136.63,0.49322,2.1247,0.040661,0,0,0,0
138.63,0.50475,2.135,0.041661,0,0,0,0
140.63,0.51545,2.1443,0.042594,0,0,0,0
142.63,0.52748,2.154,0.043173,0,0,0,0
144.63,0.53884,2.163,0.044073,0,0,0,0
146.63,0.55026,2.1727,0.044877,0,0,0,0
148.63,0.56212,2.1817,0.045936,0,0,0,0
150.63,0.57317,2.1907,0.046769,0,0,0,0
152.63,0.58509,2.1993,0.047634,0,0,0,0
154.63,0.5967,2.208,0.048339,0,0,0,0
156.63,0.60811,2.217,0.049234,0,0,0,0
158.63,0.62019,2.225,0.05032,0,0,0,0
160.63,0.63152,2.2337,0.051119,0,0,0,0
162.63,0.64314,2.242,0.051979,0,0,0,0
164.63,0.65554,2.25,0.052554,0,0,0,0
166.63,0.6668,2.258,0.053445,0,0,0,0
168.63,0.67864,2.2653,0.054527,0,0,0,0
170.63,0.69033,2.2736,0.055576,0,0,0,0
172.63,0.70179,2.281,0.05637,0,0,0,0
174.63,0.71379,2.2883,0.057036,0,0,0,0
176.63,0.72552,2.2957,0.057955,0,0,0,0
178.63,0.73681,2.303,0.059126,0,0,0,0
180.63,0.74914,2.3103,0.060046,0,0,0,0
182.63,0.76045,2.3173,0.060867,0,0,0,0
184.63,0.77205,2.324,0.061562,0,0,0,0
186.63,0.78434,2.3313,0.062288,0,0,0,0
188.63,0.79552,2.338,0.063518,0,0,0,0
190.63,0.80739,2.3447,0.064589,0,0,0,0
192.63,0.81923,2.3513,0.06547,0,0,0,0
194.63,0.83054,2.3576,0.066194,0,0,0,0
196.63,0.84312,2.3643,0.067072,0,0,0,0
198.63,0.85452,2.3707,0.067951,0,0,0,0
200.63,0.86629,2.3767,0.069049,0,0,0,0
202.63,0.87861,2.3827,0.070177,0,0,0,0
204.63,0.89009,2.3893,0.071084,0,0,0,0
206.63,0.90235,2.3953,0.071928,0,0,0,0
208.63,0.91438,2.401,0.072834,0,0,0,0
210.63,0.92592,2.407,0.073802,0,0,0,0
212.63,0.93834,2.4127,0.075144,0,0,0,0
214.63,0.94993,2.4187,0.076138,0,0,0,0
216.63,0.96189,2.4243,0.076979,0,0,0,0
218.63,0.97391,2.4297,0.077879,0,0,0,0
220.63,0.98579,2.4357,0.07906,0,0,0,0
222.63,0.99804,2.4413,0.080083,0,0,0,0
224.63,1.0104,2.4463,0.081353,0,0,0,0
226.63,1.0216,2.4513,0.082467,0,0,0,0
228.63,1.0341,2.457,0.083271,0,0,0,0
230.63,1.046,2.4623,0.08429,0,0,0,0
232.63,1.058,2.467,0.085711,0,0,0,0
234.63,1.0705,2.472,0.086695,0,0,0,0
236.63,1.0819,2.4773,0.087957,0,0,0,0
238.63,1.0945,2.482,0.089095,0,0,0,0
240.63,1.1065,2.487,0.090016,0,0,0,0
242.63,1.1181,2.492,0.091274,0,0,0,0
244.63,1.131,2.496,0.092377,0,0,0,0
246.63,1.1428,2.501,0.093448,0,0,0,0
248.63,1.1546,2.5057,0.094792,0,0,0,0
250.63,1.167,2.51,0.096014,0,0,0,0
252.63,1.1786,2.514,0.097203,0,0,0,0
254.63,1.191,2.519,0.098361,0,0,0,0
256.63,1.2028,2.523,0.099486,0,0,0,0
258.63,1.2147,2.527,0.10097,0,0,0,0
260.63,1.2274,2.531,0.10231,0,0,0,0
262.63,1.2388,2.535,0.10337,0,0,0,0
264.63,1.2508,2.54,0.10464,0,0,0,0
266.63,1.2629,2.5433,0.10585,0,0,0,0
268.63,1.2748,2.547,0.10736,0,0,0,0
270.63,1.2875,2.551,0.10869,0,0,0,0
272.63,1.2993,2.555,0.1101,0,0,0,0
274.63,1.311,2.559,0.11115,0,0,0,0
276.63,1.3239,2.5626,0.11275,0,0,0,0
278.63,1.3355,2.566,0.11427,0,0,0,0
280.63,1.3476,2.5696,0.11556,0,0,0,0
282.63,1.3601,2.573,0.11688,0,0,0,0
284.63,1.372,2.5763,0.11846,0,0,0,0
286.63,1.3846,2.58,0.11998,0,0,0,0
288.63,1.3965,2.583,0.12129,0,0,0,0
290.63,1.4085,2.5867,0.12263,0,0,0,0
292.63,1.4212,2.59,0.12438,0,0,0,0
294.63,1.4331,2.5927,0.1261,0,0,0,0
296.63,1.4454,2.596,0.12767,0,0,0,0
298.63,1.4579,2.599,0.12902,0,0,0,0
300.63,1.4693,2.6017,0.13059,0,0,0,0
302.63,1.482,2.6047,0.13244,0,0,0,0
304.63,1.494,2.607,0.13418,0,0,0,0
306.63,1.5062,2.61,0.13561,0,0,0,0
308.63,1.5188,2.6127,0.13734,0,0,0,0
310.63,1.5302,2.6153,0.13945,0,0,0,0
312.63,1.5434,2.6177,0.14126,0,0,0,0
314.63,1.5554,2.62,0.14295,0,0,0,0
316.63,1.5674,2.6227,0.14481,0,0,0,0
318.63,1.5805,2.625,0.14679,0,0,0,0
320.63,1.5924,2.6273,0.14887,0,0,0,0
322.63,1.6049,2.6293,0.15081,0,0,0,0
324.63,1.6175,2.6317,0.15274,0,0,0,0
326.63,1.6296,2.634,0.15499,0,0,0,0
328.63,1.6427,2.6357,0.15706,0,0,0,0
330.63,1.6546,2.6377,0.15906,0,0,0,0
332.63,1.667,2.6393,0.16132,0,0,0,0
334.63,1.6798,2.6413,0.16349,0,0,0,0
336.63,1.6919,2.6427,0.16614,0,0,0,0
338.63,1.7048,2.6443,0.16847,0,0,0,0
340.63,1.7172,2.6457,0.17091,0,0,0,0
342.63,1.7296,2.647,0.17348,0,0,0,0
344.63,1.7426,2.6487,0.17619,0,0,0,0
346.63,1.755,2.6497,0.17889,0,0,0,0
348.63,1.7679,2.651,0.18156,0,0,0,0
350.63,1.7806,2.6523,0.1843,0,0,0,0
352.63,1.793,2.653,0.18714,0,0,0,0
354.63,1.8063,2.6533,0.1902,0,0,0,0
356.63,1.8188,2.654,0.19339,0,0,0,0
358.63,1.8318,2.655,0.19659,0,0,0,0
360.63,1.845,2.6557,0.19962,0,0,0,0
362.63,1.8575,2.6553,0.20319,0,0,0,0
364.63,1.8711,2.6553,0.20683,0,0,0,0
366.63,1.8836,2.6553,0.21059,0,0,0,0
368.62,1.8966,2.6557,0.21445,0,0,0,0
370.63,1.9097,2.655,0.21832,0,0,0,0
372.63,1.9225,2.654,0.22264,0,0,0,0
374.63,1.936,2.6537,0.2269,0,0,0,0
376.63,1.9488,2.6527,0.23136,0,0,0,0
378.63,1.962,2.651,0.23612,0,0,0,0
380.63,1.9754,2.6493,0.24094,0,0,0,0
382.63,1.9882,2.648,0.24602,0,0,0,0
384.63,2.002,2.6453,0.25128,0,0,0,0
386.63,2.0151,2.6427,0.25686,0,0,0,0
388.63,2.0284,2.64,0.26245,0,0,0,0
390.62,2.0422,2.636,0.26805,0,0,0,0
392.63,2.0552,2.632,0.27422,0,0,0,0
394.63,2.0692,2.6274,0.28061,0,0,0,0
396.63,2.0829,2.622,0.28699,0,0,0,0
398.63,2.0966,2.6157,0.29358,0,0,0,0
400.62,2.1107,2.609,0.30052,0,0,0,0
402.63,2.1243,2.6007,0.30719,0,0,0,0
404.62,2.1386,2.5913,0.31444,0,0,0,0
406.62,2.1525,2.5807,0.3219,0,0,0,0
408.62,2.1669,2.5693,0.32911,0,0,0,0
410.62,2.1813,2.5563,0.33663,0,0,0,0
412.62,2.1954,2.5417,0.34441,0,0,0,0
414.62,2.2106,2.525,0.35229,0,0,0,0
416.63,2.2246,2.5067,0.36039,0,0,0,0
418.62,2.2398,2.4871,0.36835,0,0,0,0
420.62,2.2551,2.4626,0.37667,0,0,0,0
422.62,2.2706,2.436,0.38572,0,0,0,0
423.62,2.2789,2.4187,0.39019,0,0,0,0

File: NT6_90_1.csv
Time[s],Displacement[mm],Force[kN],AxStrain_1,AxStrain_2,Thickness[mm],OuterWidth[mm],InnerWidth[mm]
0.64,0,-0.0050318,0,0,1.1161,20,10.071
2.64,0.001458,0.063423,-4e-06,0,0,0,0
4.64,0.002883,0.14385,0.00011099,0,0,0,0
6.64,0.003778,0.20286,5.8998e-05,0,0,0,0
8.64,0.005145,0.25729,0.00021598,0,0,0,0
10.64,0.006348,0.31543,0.00034494,0,0,0,0
12.64,0.007896,0.37115,0.00035794,0,0,0,0
14.64,0.009175,0.43285,0.00036593,0,0,0,0
16.64,0.009954,0.49129,0.00027896,0,0,0,0
18.64,0.011227,0.55386,0.00041991,0,0,0,0
20.64,0.012818,0.61314,0.00049388,0,0,0,0
22.64,0.01499,0.67514,0.00056384,0,0,0,0
24.64,0.016457,0.73586,0.00056384,0,0,0,0
26.64,0.017609,0.79729,0.0006378,0,0,0,0
28.64,0.018529,0.85929,0.00055085,0,0,0,0
30.64,0.020352,0.91886,0.0006378,0,0,0,0
32.64,0.022195,0.98185,0.0007717,0,0,0,0
34.64,0.024186,1.04,0.00098651,0,0,0,0
36.64,0.02564,1.1011,0.00095654,0,0,0,0
38.64,0.027262,1.1581,0.0007787,0,0,0,0
40.64,0.028923,1.2169,0.00093656,0,0,0,0
42.64,0.031264,1.2729,0.0011883,0,0,0,0
44.64,0.033621,1.327,0.0014959,0,0,0,0
46.64,0.036102,1.3797,0.0017175,0,0,0,0
48.64,0.041124,1.4196,0.0024879,0,0,0,0
50.64,0.047785,1.4546,0.003449,0,0,0,0
52.64,0.054272,1.486,0.0045725,0,0,0,0
54.64,0.061647,1.5156,0.0059314,0,0,0,0
56.64,0.069564,1.5417,0.0070491,0,0,0,0
58.64,0.077729,1.567,0.0075623,0,0,0,0
60.64,0.085682,1.5903,0.0082281,0,0,0,0
62.64,0.094783,1.6123,0.0090975,0,0,0,0
64.64,0.10375,1.634,0.010473,0,0,0,0
66.64,0.11247,1.654,0.011666,0,0,0,0
68.64,0.12224,1.6744,0.011964,0,0,0,0
70.64,0.13193,1.693,0.012422,0,0,0,0
72.64,0.14114,1.7117,0.013353,0,0,0,0
74.64,0.15114,1.7297,0.014452,0,0,0,0
76.64,0.16109,1.7473,0.015772,0,0,0,0
78.64,0.17054,1.7643,0.016237,0,0,0,0
80.64,0.18121,1.7804,0.016568,0,0,0,0
82.64,0.19149,1.7973,0.017268,0,0,0,0
84.64,0.20118,1.813,0.018567,0,0,0,0
86.64,0.21199,1.829,0.019305,0,0,0,0
88.64,0.22209,1.8437,0.020007,0,0,0,0
90.64,0.23219,1.8593,0.020716,0,0,0,0
92.64,0.24328,1.8737,0.021499,0,0,0,0
94.64,0.25331,1.8877,0.022156,0,0,0,0
96.64,0.26378,1.9017,0.023108,0,0,0,0
98.64,0.27481,1.9153,0.023891,0,0,0,0
100.64,0.28498,1.929,0.024393,0,0,0,0
102.64,0.29567,1.942,0.02513,0,0,0,0
104.64,0.30664,1.955,0.025935,0,0,0,0
106.64,0.31682,1.9677,0.026795,0,0,0,0
108.64,0.3281,1.9806,0.027327,0,0,0,0
110.64,0.33891,1.9924,0.028085,0,0,0,0
112.64,0.34953,2.0047,0.029051,0,0,0,0
114.64,0.36096,2.0166,0.029834,0,0,0,0
116.64,0.37165,2.0283,0.030453,0,0,0,0
118.64,0.38265,2.0397,0.03094,0,0,0,0
120.64,0.39406,2.0503,0.031884,0,0,0,0
122.64,0.40494,2.062,0.032632,0,0,0,0
124.64,0.41592,2.0723,0.033574,0,0,0,0
126.64,0.42754,2.0833,0.03432,0,0,0,0
128.64,0.43831,2.0937,0.034904,0,0,0,0
130.63,0.44967,2.1037,0.035779,0,0,0,0
132.64,0.46107,2.1143,0.036459,0,0,0,0
134.63,0.47183,2.124,0.037171,0,0,0,0
136.63,0.48364,2.1337,0.03785,0,0,0,0
138.64,0.49475,2.143,0.038561,0,0,0,0
140.63,0.5057,2.1527,0.039401,0,0,0,0
142.64,0.51759,2.1617,0.039948,0,0,0,0
144.64,0.5283,2.171,0.040884,0,0,0,0
146.63,0.53978,2.1797,0.04156,0,0,0,0
148.64,0.55153,2.188,0.042333,0,0,0,0
150.64,0.56241,2.197,0.043009,0,0,0,0
152.63,0.57433,2.2057,0.043748,0,0,0,0
154.63,0.58591,2.2137,0.044519,0,0,0,0
156.63,0.59691,2.222,0.045321,0,0,0,0
158.63,0.60928,2.2304,0.046316,0,0,0,0
160.64,0.62031,2.2383,0.047052,0,0,0,0
162.63,0.63216,2.2466,0.047597,0,0,0,0
164.64,0.64399,2.254,0.048461,0,0,0,0
166.64,0.65527,2.262,0.049228,0,0,0,0
168.63,0.66703,2.27,0.050091,0,0,0,0
170.63,0.67883,2.2773,0.050825,0,0,0,0
172.64,0.68978,2.2843,0.051718,0,0,0,0
174.63,0.70182,2.2913,0.05242,0,0,0,0
176.63,0.71311,2.299,0.053121,0,0,0,0
178.63,0.72444,2.3063,0.054106,0,0,0,0
180.64,0.73698,2.313,0.055029,0,0,0,0
182.63,0.74789,2.32,0.055696,0,0,0,0
184.63,0.75939,2.3267,0.056458,0,0,0,0
186.63,0.77142,2.334,0.057409,0,0,0,0
188.63,0.78255,2.34,0.058011,0,0,0,0
190.63,0.79457,2.347,0.058898,0,0,0,0
192.64,0.80645,2.3533,0.059879,0,0,0,0
194.63,0.81785,2.3603,0.060669,0,0,0,0
196.63,0.83014,2.3663,0.061553,0,0,0,0
198.63,0.84177,2.3723,0.062532,0,0,0,0
200.63,0.85344,2.3787,0.063414,0,0,0,0
202.63,0.8654,2.3853,0.064107,0,0,0,0
204.63,0.87688,2.3913,0.064926,0,0,0,0
206.63,0.88917,2.3973,0.066026,0,0,0,0
208.63,0.9009,2.4027,0.066937,0,0,0,0
210.63,0.91256,2.4087,0.067659,0,0,0,0
212.63,0.92492,2.4147,0.068475,0,0,0,0
214.63,0.93662,2.4203,0.069446,0,0,0,0
216.63,0.94768,2.426,0.070417,0,0,0,0
218.63,0.96016,2.4317,0.071449,0,0,0,0
220.63,0.97136,2.4373,0.072229,0,0,0,0
222.63,0.98347,2.4423,0.073228,0,0,0,0
224.63,0.99519,2.4477,0.074321,0,0,0,0
226.63,1.0065,2.453,0.075224,0,0,0,0
228.63,1.0188,2.4583,0.076314,0,0,0,0
230.63,1.0304,2.4637,0.077091,0,0,0,0
232.63,1.0421,2.469,0.078054,0,0,0,0
234.63,1.0545,2.474,0.079233,0,0,0,0
236.63,1.0658,2.4787,0.080257,0,0,0,0
238.63,1.0781,2.484,0.08131,0,0,0,0
240.63,1.0898,2.489,0.082331,0,0,0,0
242.63,1.1015,2.4933,0.08335,0,0,0,0
244.63,1.1136,2.498,0.084246,0,0,0,0
246.63,1.1252,2.503,0.085479,0,0,0,0
248.63,1.1366,2.5073,0.086558,0,0,0,0
250.63,1.149,2.512,0.087513,0,0,0,0
252.63,1.1603,2.516,0.088619,0,0,0,0
254.63,1.1724,2.521,0.089601,0,0,0,0
256.63,1.1842,2.525,0.09089,0,0,0,0
258.63,1.1955,2.529,0.092208,0,0,0,0
260.63,1.2078,2.5333,0.093401,0,0,0,0
262.63,1.2192,2.538,0.094349,0,0,0,0
264.63,1.2311,2.542,0.095601,0,0,0,0
266.63,1.2432,2.5453,0.096851,0,0,0,0
268.63,1.2546,2.5493,0.098039,0,0,0,0
270.63,1.2668,2.5533,0.09965,0,0,0,0
272.63,1.2787,2.5577,0.10071,0,0,0,0
274.63,1.2902,2.5614,0.1019,0,0,0,0
276.63,1.3026,2.565,0.1032,0,0,0,0
278.63,1.3143,2.569,0.10471,0,0,0,0
280.63,1.3263,2.572,0.10595,0,0,0,0
282.63,1.3386,2.576,0.10767,0,0,0,0
284.63,1.3503,2.579,0.10891,0,0,0,0
286.63,1.3627,2.5827,0.11044,0,0,0,0
288.63,1.3749,2.5863,0.11176,0,0,0,0
290.63,1.3868,2.5897,0.11326,0,0,0,0
292.63,1.3996,2.5923,0.1147,0,0,0,0
294.63,1.411,2.596,0.11635,0,0,0,0
296.63,1.4231,2.599,0.11826,0,0,0,0
298.63,1.4357,2.6017,0.11951,0,0,0,0
300.63,1.4476,2.6047,0.12097,0,0,0,0
302.63,1.4597,2.608,0.12258,0,0,0,0
304.63,1.4721,2.6103,0.12436,0,0,0,0
306.63,1.4838,2.6133,0.12602,0,0,0,0
308.63,1.4964,2.616,0.12767,0,0,0,0
310.63,1.5081,2.6187,0.12962,0,0,0,0
312.63,1.5206,2.6213,0.13142,0,0,0,0
314.63,1.5329,2.624,0.1331,0,0,0,0
316.63,1.5453,2.6257,0.13503,0,0,0,0
318.63,1.558,2.6283,0.1372,0,0,0,0
320.63,1.5698,2.6307,0.13907,0,0,0,0
322.63,1.5819,2.6327,0.14106,0,0,0,0
324.63,1.595,2.6347,0.14318,0,0,0,0
326.63,1.6072,2.6367,0.14542,0,0,0,0
328.63,1.6197,2.6387,0.14769,0,0,0,0
330.63,1.6319,2.6407,0.14992,0,0,0,0
332.63,1.6439,2.6427,0.1522,0,0,0,0
334.63,1.6572,2.6443,0.15482,0,0,0,0
336.63,1.6692,2.6457,0.15738,0,0,0,0
338.63,1.6817,2.647,0.1599,0,0,0,0
340.63,1.6949,2.6483,0.16264,0,0,0,0
342.63,1.7069,2.6496,0.16543,0,0,0,0
344.63,1.7203,2.6507,0.16836,0,0,0,0
346.63,1.7325,2.6513,0.17133,0,0,0,0
348.63,1.745,2.6527,0.17447,0,0,0,0
350.63,1.7582,2.653,0.17773,0,0,0,0
352.63,1.7708,2.6533,0.18127,0,0,0,0
354.63,1.7838,2.6537,0.1848,0,0,0,0
356.63,1.7967,2.654,0.18831,0,0,0,0
358.63,1.8095,2.6544,0.19206,0,0,0,0
360.63,1.8231,2.654,0.19619,0,0,0,0
362.63,1.8357,2.6533,0.20035,0,0,0,0
364.63,1.8489,2.653,0.2046,0,0,0,0
366.63,1.8622,2.652,0.20924,0,0,0,0
368.63,1.8748,2.65,0.21418,0,0,0,0
370.63,1.8883,2.6487,0.21913,0,0,0,0
372.63,1.9011,2.6467,0.2244,0,0,0,0
374.63,1.9145,2.6444,0.22967,0,0,0,0
376.63,1.9282,2.641,0.23529,0,0,0,0
378.63,1.9411,2.638,0.24098,0,0,0,0
380.63,1.9553,2.634,0.24712,0,0,0,0
382.63,1.9682,2.6293,0.25324,0,0,0,0
384.63,1.9822,2.6247,0.25977,0,0,0,0
386.63,1.9958,2.6183,0.2661,0,0,0,0
388.63,2.0091,2.6116,0.2729,0,0,0,0
390.63,2.0234,2.604,0.27986,0,0,0,0
392.63,2.037,2.596,0.28695,0,0,0,0
394.63,2.0515,2.5867,0.29423,0,0,0,0
396.63,2.0655,2.5763,0.30152,0,0,0,0
398.63,2.0793,2.565,0.30902,0,0,0,0
400.63,2.0942,2.5523,0.31684,0,0,0,0
402.63,2.1081,2.539,0.3245,0,0,0,0
404.63,2.1234,2.524,0.33258,0,0,0,0
406.63,2.1374,2.5083,0.34055,0,0,0,0
408.63,2.152,2.49,0.34857,0,0,0,0
410.63,2.1674,2.4704,0.35679,0,0,0,0
412.63,2.1818,2.4483,0.36516,0,0,0,0
414.63,2.1978,2.4254,0.37361,0,0,0,0
416.63,2.2127,2.398,0.38232,0,0,0,0
418.63,2.2292,2.3663,0.39158,0,0,0,0
419.13,2.2333,2.3574,0.39383,0,0,0,0