Folder: ethz/polyN_optimization/results_exp/AA6014-T4 (part 4)

File: NT6_90_2.csv
Time[s],Displacement[mm],Force[kN],AxStrain_1,AxStrain_2,Thickness[mm],OuterWidth[mm],InnerWidth[mm]
0.64,0,-0.0055575,0,0,1.1166,20,10.039
2.64,0.001674,0.058718,0.00014999,0,0,0,0
4.64,0.002841,0.13943,0.00014299,0,0,0,0
6.64,0.003682,0.20014,0.00022997,0,0,0,0
8.64,0.004604,0.24786,0.00022198,0,0,0,0
10.64,0.005794,0.30414,0.00018798,0,0,0,0
12.64,0.007392,0.36114,0.00030695,0,0,0,0
14.64,0.008524,0.41915,0.00029496,0,0,0,0
16.64,0.009283,0.478,0.00038593,0,0,0,0
18.64,0.010163,0.538,0.00035894,0,0,0,0
20.64,0.011704,0.59586,0.00036593,0,0,0,0
22.64,0.013543,0.65686,0.00052686,0,0,0,0
24.64,0.015276,0.71629,0.00058083,0,0,0,0
26.64,0.016558,0.77815,0.00052386,0,0,0,0
28.64,0.017535,0.83585,0.00052386,0,0,0,0
30.64,0.018838,0.89514,0.00058783,0,0,0,0
32.64,0.020913,0.95315,0.00067477,0,0,0,0
34.64,0.022723,1.011,0.00087562,0,0,0,0
36.64,0.024576,1.069,0.0010475,0,0,0,0
38.64,0.025809,1.1241,0.00074872,0,0,0,0
40.64,0.027313,1.1819,0.00097353,0,0,0,0
42.64,0.029442,1.235,0.0010165,0,0,0,0
44.64,0.03198,1.289,0.0012982,0,0,0,0
46.64,0.034508,1.3404,0.0015668,0,0,0,0
48.64,0.037614,1.3889,0.0021467,0,0,0,0
50.64,0.042868,1.4249,0.0031441,0,0,0,0
52.64,0.049781,1.4564,0.0039741,0,0,0,0
54.64,0.056764,1.4877,0.0050134,0,0,0,0
56.64,0.063895,1.5143,0.0063021,0,0,0,0
58.64,0.072254,1.5404,0.0074422,0,0,0,0
60.64,0.080097,1.5637,0.008108,0,0,0,0
62.64,0.088077,1.5873,0.0084879,0,0,0,0
64.64,0.097,1.608,0.0093363,0,0,0,0
66.64,0.10646,1.6294,0.010725,0,0,0,0
68.64,0.11515,1.649,0.011894,0,0,0,0
70.64,0.12465,1.6687,0.012402,0,0,0,0
72.64,0.13444,1.6873,0.012651,0,0,0,0
74.64,0.14368,1.7053,0.013588,0,0,0,0
76.64,0.15356,1.7237,0.014882,0,0,0,0
78.64,0.16394,1.7403,0.015798,0,0,0,0
80.64,0.17326,1.7576,0.016369,0,0,0,0
82.64,0.18362,1.7737,0.016782,0,0,0,0
84.64,0.19404,1.79,0.017653,0,0,0,0
86.64,0.20384,1.8053,0.01882,0,0,0,0
88.64,0.21472,1.821,0.019644,0,0,0,0
90.64,0.22488,1.8363,0.020262,0,0,0,0
92.64,0.23508,1.8506,0.020871,0,0,0,0
94.64,0.24583,1.8657,0.021686,0,0,0,0
96.64,0.25617,1.8793,0.022428,0,0,0,0
98.64,0.26629,1.8933,0.023553,0,0,0,0
100.64,0.27726,1.9067,0.024071,0,0,0,0
102.64,0.28776,1.9207,0.024776,0,0,0,0
104.64,0.2981,1.9333,0.025525,0,0,0,0
106.64,0.30923,1.9457,0.026196,0,0,0,0
108.64,0.3193,1.959,0.027176,0,0,0,0
110.64,0.33019,1.971,0.027754,0,0,0,0
112.64,0.34147,1.9834,0.028557,0,0,0,0
114.64,0.35182,1.995,0.029376,0,0,0,0
116.64,0.36286,2.007,0.030028,0,0,0,0
118.64,0.37415,2.0184,0.030809,0,0,0,0
120.64,0.38462,2.0293,0.031753,0,0,0,0
122.64,0.39595,2.041,0.032533,0,0,0,0
124.64,0.40711,2.052,0.033054,0,0,0,0
126.64,0.41787,2.0627,0.033767,0,0,0,0
128.64,0.42998,2.073,0.034546,0,0,0,0
130.64,0.44031,2.0837,0.035389,0,0,0,0
132.64,0.45125,2.0933,0.036166,0,0,0,0
134.64,0.4631,2.104,0.036749,0,0,0,0
136.64,0.47398,2.1133,0.037364,0,0,0,0
138.64,0.48539,2.123,0.038366,0,0,0,0
140.64,0.49667,2.1323,0.039141,0,0,0,0
142.64,0.50753,2.1417,0.039787,0,0,0,0
144.64,0.51931,2.151,0.040335,0,0,0,0
146.64,0.53065,2.1593,0.041011,0,0,0,0
148.64,0.54149,2.1687,0.04201,0,0,0,0
150.64,0.55384,2.177,0.042686,0,0,0,0
152.64,0.56475,2.186,0.043329,0,0,0,0
154.64,0.57607,2.1944,0.043939,0,0,0,0
156.64,0.58825,2.203,0.044774,0,0,0,0
158.64,0.59805,2.211,0.045866,0,0,0,0
160.64,0.611,2.219,0.046539,0,0,0,0
162.64,0.62252,2.2273,0.047179,0,0,0,0
164.64,0.63352,2.235,0.047724,0,0,0,0
166.64,0.64557,2.243,0.048716,0,0,0,0
168.64,0.65719,2.2507,0.049706,0,0,0,0
170.64,0.66844,2.2586,0.0506,0,0,0,0
172.64,0.68045,2.2657,0.050919,0,0,0,0
174.64,0.69162,2.2733,0.051716,0,0,0,0
176.64,0.70337,2.2803,0.052704,0,0,0,0
178.64,0.71521,2.2877,0.053723,0,0,0,0
180.64,0.72613,2.2943,0.054391,0,0,0,0
182.64,0.73796,2.3013,0.054963,0,0,0,0
184.64,0.74952,2.3087,0.055725,0,0,0,0
186.64,0.7609,2.3153,0.056678,0,0,0,0
188.64,0.77259,2.3223,0.057819,0,0,0,0
190.64,0.78397,2.3283,0.058358,0,0,0,0
192.64,0.79544,2.335,0.059181,0,0,0,0
194.64,0.80755,2.342,0.059939,0,0,0,0
196.64,0.8191,2.3484,0.060982,0,0,0,0
198.64,0.8311,2.3543,0.06174,0,0,0,0
200.64,0.84317,2.3603,0.062749,0,0,0,0
202.64,0.85418,2.367,0.06338,0,0,0,0
204.64,0.86637,2.3733,0.06442,0,0,0,0
206.64,0.87796,2.3793,0.065238,0,0,0,0
208.64,0.88986,2.3853,0.065992,0,0,0,0
210.64,0.90191,2.391,0.066871,0,0,0,0
212.64,0.91344,2.3967,0.067907,0,0,0,0
214.64,0.92525,2.4027,0.068817,0,0,0,0
216.64,0.93709,2.4087,0.0696,0,0,0,0
218.64,0.9483,2.414,0.070508,0,0,0,0
220.64,0.96072,2.4197,0.07154,0,0,0,0
222.64,0.97225,2.425,0.072602,0,0,0,0
224.64,0.98379,2.4303,0.073569,0,0,0,0
226.64,0.99616,2.4357,0.074473,0,0,0,0
228.64,1.0076,2.441,0.07547,0,0,0,0
230.64,1.0192,2.4466,0.076434,0,0,0,0
232.64,1.0316,2.4513,0.077429,0,0,0,0
234.64,1.0432,2.4567,0.078516,0,0,0,0
236.64,1.0551,2.4613,0.079323,0,0,0,0
238.64,1.0671,2.4667,0.080532,0,0,0,0
240.64,1.0789,2.4717,0.081398,0,0,0,0
242.64,1.0911,2.476,0.082636,0,0,0,0
244.64,1.1026,2.481,0.083501,0,0,0,0
246.64,1.1145,2.486,0.08455,0,0,0,0
248.63,1.1267,2.4903,0.085814,0,0,0,0
250.64,1.1381,2.495,0.086768,0,0,0,0
252.64,1.1501,2.4997,0.087876,0,0,0,0
254.64,1.1617,2.504,0.088891,0,0,0,0
256.64,1.1733,2.5083,0.090211,0,0,0,0
258.64,1.1857,2.5123,0.091436,0,0,0,0
260.64,1.1972,2.517,0.092264,0,0,0,0
262.63,1.2087,2.521,0.093488,0,0,0,0
264.64,1.2209,2.5257,0.094863,0,0,0,0
266.64,1.2323,2.529,0.095992,0,0,0,0
268.64,1.2445,2.533,0.097149,0,0,0,0
270.64,1.2564,2.537,0.098215,0,0,0,0
272.64,1.2677,2.541,0.099584,0,0,0,0
274.63,1.2802,2.545,0.10104,0,0,0,0
276.63,1.2918,2.549,0.10216,0,0,0,0
278.63,1.3037,2.5527,0.10353,0,0,0,0
280.64,1.3161,2.556,0.10483,0,0,0,0
282.64,1.3279,2.5596,0.10616,0,0,0,0
284.64,1.34,2.5637,0.10764,0,0,0,0
286.63,1.352,2.567,0.10905,0,0,0,0
288.64,1.3637,2.57,0.11062,0,0,0,0
290.63,1.3764,2.574,0.11179,0,0,0,0
292.63,1.3883,2.5767,0.11329,0,0,0,0
294.63,1.4005,2.58,0.11475,0,0,0,0
296.63,1.4125,2.583,0.11613,0,0,0,0
298.63,1.4244,2.5867,0.11786,0,0,0,0
300.63,1.4369,2.5897,0.11926,0,0,0,0
302.63,1.449,2.5923,0.12084,0,0,0,0
304.63,1.4608,2.595,0.12245,0,0,0,0
306.63,1.4733,2.598,0.12426,0,0,0,0
308.63,1.4852,2.601,0.12616,0,0,0,0
310.63,1.4974,2.6037,0.12775,0,0,0,0
312.63,1.51,2.6063,0.12955,0,0,0,0
314.63,1.5219,2.6087,0.13132,0,0,0,0
316.63,1.5348,2.611,0.1332,0,0,0,0
318.63,1.5466,2.6137,0.13502,0,0,0,0
320.63,1.5589,2.616,0.13702,0,0,0,0
322.63,1.5719,2.6183,0.13897,0,0,0,0
324.63,1.5839,2.6207,0.14096,0,0,0,0
326.63,1.5965,2.6223,0.14297,0,0,0,0
328.63,1.6089,2.6243,0.14521,0,0,0,0
330.63,1.6212,2.6263,0.1475,0,0,0,0
332.63,1.6336,2.6287,0.1497,0,0,0,0
334.63,1.6461,2.6307,0.15192,0,0,0,0
336.63,1.6587,2.6323,0.15437,0,0,0,0
338.63,1.6718,2.634,0.15684,0,0,0,0
340.63,1.6837,2.6354,0.15948,0,0,0,0
342.63,1.6966,2.6367,0.16182,0,0,0,0
344.63,1.7091,2.6373,0.1647,0,0,0,0
346.63,1.7217,2.639,0.16743,0,0,0,0
348.63,1.7348,2.64,0.17035,0,0,0,0
350.63,1.7474,2.641,0.17349,0,0,0,0
352.63,1.7604,2.641,0.17668,0,0,0,0
354.63,1.7733,2.642,0.17996,0,0,0,0
356.63,1.7859,2.6427,0.18316,0,0,0,0
358.63,1.7991,2.643,0.18659,0,0,0,0
360.63,1.8119,2.643,0.19046,0,0,0,0
362.63,1.825,2.643,0.1944,0,0,0,0
364.63,1.8379,2.643,0.19829,0,0,0,0
366.63,1.851,2.642,0.20252,0,0,0,0
368.63,1.8645,2.6413,0.20678,0,0,0,0
370.63,1.8771,2.6407,0.21144,0,0,0,0
372.63,1.8905,2.6397,0.21605,0,0,0,0
374.63,1.9036,2.6377,0.22085,0,0,0,0
376.63,1.9164,2.6353,0.2263,0,0,0,0
378.63,1.9302,2.633,0.23146,0,0,0,0
380.63,1.9431,2.6307,0.23675,0,0,0,0
382.63,1.9567,2.6274,0.24262,0,0,0,0
384.63,1.9702,2.6237,0.24848,0,0,0,0
386.63,1.9835,2.619,0.2548,0,0,0,0
388.63,1.9975,2.6143,0.26124,0,0,0,0
390.63,2.0108,2.6083,0.26764,0,0,0,0
392.63,2.0249,2.602,0.27435,0,0,0,0
394.63,2.0385,2.595,0.28132,0,0,0,0
396.63,2.0525,2.587,0.28845,0,0,0,0
398.63,2.0669,2.578,0.2959,0,0,0,0
400.63,2.0804,2.5687,0.30317,0,0,0,0
402.63,2.0952,2.5573,0.31077,0,0,0,0
404.63,2.1091,2.546,0.31864,0,0,0,0
406.63,2.1233,2.533,0.32648,0,0,0,0
408.63,2.1381,2.519,0.3345,0,0,0,0
410.63,2.1521,2.504,0.3426,0,0,0,0
412.63,2.1671,2.4867,0.35102,0,0,0,0
414.63,2.1816,2.4693,0.35943,0,0,0,0
416.63,2.1965,2.4497,0.36819,0,0,0,0
418.63,2.2118,2.4284,0.37704,0,0,0,0
420.63,2.2264,2.404,0.38639,0,0,0,0
422.63,2.242,2.379,0.39589,0,0,0,0
424.63,2.2575,2.3503,0.4054,0,0,0,0
426.63,2.2739,2.3176,0.41561,0,0,0,0
427.13,2.2781,2.3084,0.41854,0,0,0,0

File: NT6_90_3.csv
Time[s],Displacement[mm],Force[kN],AxStrain_1,AxStrain_2,Thickness[mm],OuterWidth[mm],InnerWidth[mm]
0.59,0,-0.0052326,0,0,1.1185,20,10.09
2.59,0.001638,0.062714,7.4997e-05,0,0,0,0
4.59,0.002782,0.13972,9.0996e-05,0,0,0,0
6.59,0.004141,0.21357,0.00021298,0,0,0,0
8.59,0.004722,0.26,0.00025197,0,0,0,0
10.59,0.006156,0.31715,0.00029996,0,0,0,0
12.59,0.0077,0.37385,0.00029996,0,0,0,0
14.59,0.008938,0.43414,0.00025197,0,0,0,0
16.59,0.009753,0.49443,0.00029896,0,0,0,0
18.59,0.010807,0.55629,0.00030595,0,0,0,0
20.59,0.012167,0.62,0.00047988,0,0,0,0
22.59,0.014248,0.68086,0.00039992,0,0,0,0
24.59,0.016105,0.74585,0.00069776,0,0,0,0
26.59,0.017354,0.807,0.00049388,0,0,0,0
28.59,0.018129,0.87186,0.00066778,0,0,0,0
30.59,0.019479,0.93314,0.00075172,0,0,0,0
32.59,0.021517,0.99514,0.00084564,0,0,0,0
34.59,0.023669,1.0559,0.00082566,0,0,0,0
36.59,0.02525,1.116,0.00083265,0,0,0,0
38.59,0.026724,1.176,0.0010974,0,0,0,0
40.59,0.028231,1.2329,0.0010035,0,0,0,0
42.59,0.030665,1.2919,0.0010105,0,0,0,0
44.59,0.033395,1.345,0.0012612,0,0,0,0
46.59,0.036974,1.3963,0.0020359,0,0,0,0
48.59,0.042325,1.4329,0.0030105,0,0,0,0
50.59,0.049117,1.4664,0.0036902,0,0,0,0
52.59,0.056735,1.4973,0.004903,0,0,0,0
54.59,0.064117,1.5259,0.0059354,0,0,0,0
56.59,0.072326,1.551,0.0072526,0,0,0,0
58.59,0.081219,1.5746,0.0083014,0,0,0,0
60.59,0.089538,1.5987,0.0086683,0,0,0,0
62.59,0.098291,1.62,0.0091005,0,0,0,0
64.59,0.10741,1.6413,0.010035,0,0,0,0
66.59,0.11638,1.6613,0.011516,0,0,0,0
68.59,0.12575,1.6807,0.012597,0,0,0,0
70.59,0.1357,1.6993,0.012876,0,0,0,0
72.59,0.14512,1.7176,0.013473,0,0,0,0
74.59,0.15504,1.735,0.01432,0,0,0,0
76.59,0.16528,1.7526,0.015667,0,0,0,0
78.59,0.17472,1.7697,0.016625,0,0,0,0
80.59,0.18473,1.7857,0.017152,0,0,0,0
82.59,0.19562,1.802,0.017579,0,0,0,0
84.59,0.20554,1.818,0.018301,0,0,0,0
86.59,0.21619,1.8334,0.019371,0,0,0,0
88.59,0.22698,1.8486,0.020404,0,0,0,0
90.59,0.23681,1.863,0.020996,0,0,0,0
92.59,0.24794,1.878,0.021437,0,0,0,0
94.59,0.25862,1.892,0.022169,0,0,0,0
96.59,0.26869,1.9067,0.023138,0,0,0,0
98.59,0.28008,1.9193,0.02401,0,0,0,0
100.59,0.29026,1.9333,0.024564,0,0,0,0
102.59,0.30056,1.9464,0.025375,0,0,0,0
104.59,0.3119,1.9594,0.026105,0,0,0,0
106.59,0.32236,1.972,0.027008,0,0,0,0
108.59,0.3329,1.9843,0.027593,0,0,0,0
110.59,0.34441,1.9963,0.028288,0,0,0,0
112.59,0.35454,2.008,0.029179,0,0,0,0
114.59,0.36571,2.02,0.029834,0,0,0,0
116.59,0.37698,2.0317,0.030551,0,0,0,0
118.59,0.38752,2.043,0.031169,0,0,0,0
120.59,0.39891,2.054,0.03221,0,0,0,0
122.59,0.40997,2.0654,0.032698,0,0,0,0
124.59,0.42055,2.0756,0.033575,0,0,0,0
126.59,0.43225,2.0864,0.034224,0,0,0,0
128.59,0.44327,2.0967,0.035002,0,0,0,0
130.59,0.4544,2.1067,0.035812,0,0,0,0
132.59,0.46612,2.1173,0.036492,0,0,0,0
134.59,0.4768,2.1274,0.037171,0,0,0,0
136.59,0.4881,2.137,0.037883,0,0,0,0
138.59,0.49997,2.1457,0.038691,0,0,0,0
140.59,0.51064,2.1557,0.039499,0,0,0,0
142.59,0.52252,2.1643,0.040079,0,0,0,0
144.59,0.53376,2.1733,0.04066,0,0,0,0
146.59,0.54486,2.182,0.041433,0,0,0,0
148.59,0.55671,2.191,0.042367,0,0,0,0
150.59,0.56797,2.199,0.043171,0,0,0,0
152.59,0.57918,2.208,0.043878,0,0,0,0
154.59,0.59124,2.2163,0.044328,0,0,0,0
156.59,0.60213,2.2244,0.045066,0,0,0,0
158.59,0.61416,2.2324,0.046189,0,0,0,0
160.59,0.62585,2.2406,0.047054,0,0,0,0
162.59,0.63696,2.2483,0.047374,0,0,0,0
164.59,0.64902,2.2563,0.04811,0,0,0,0
166.59,0.66049,2.264,0.04907,0,0,0,0
168.59,0.67173,2.2713,0.0499,0,0,0,0
170.59,0.68403,2.279,0.050604,0,0,0,0
172.59,0.69483,2.287,0.051274,0,0,0,0
174.59,0.70658,2.294,0.051943,0,0,0,0
176.59,0.71874,2.301,0.052676,0,0,0,0
178.59,0.72959,2.3083,0.053694,0,0,0,0
180.59,0.74168,2.315,0.05449,0,0,0,0
182.59,0.75313,2.3223,0.055221,0,0,0,0
184.59,0.76442,2.3287,0.056015,0,0,0,0
186.59,0.77664,2.3357,0.056808,0,0,0,0
188.59,0.78793,2.3423,0.057665,0,0,0,0
190.59,0.79946,2.3493,0.058425,0,0,0,0
192.59,0.81155,2.3553,0.059312,0,0,0,0
194.59,0.82262,2.3617,0.060134,0,0,0,0
196.59,0.83427,2.3683,0.060924,0,0,0,0
198.59,0.84606,2.375,0.06184,0,0,0,0
200.59,0.8574,2.381,0.062533,0,0,0,0
202.59,0.86958,2.387,0.063354,0,0,0,0
204.59,0.88108,2.3927,0.064487,0,0,0,0
206.59,0.89259,2.3987,0.065337,0,0,0,0
208.59,0.90492,2.4053,0.066092,0,0,0,0
210.59,0.91622,2.4107,0.067097,0,0,0,0
212.59,0.9284,2.4167,0.068007,0,0,0,0
214.59,0.94034,2.4223,0.068792,0,0,0,0
216.59,0.95149,2.428,0.069763,0,0,0,0
218.59,0.96377,2.4337,0.070451,0,0,0,0
220.59,0.97556,2.4387,0.07142,0,0,0,0
222.59,0.98692,2.4447,0.072389,0,0,0,0
224.59,0.99928,2.4503,0.073326,0,0,0,0
226.59,1.0108,2.455,0.074323,0,0,0,0
228.59,1.0224,2.4603,0.075165,0,0,0,0
230.59,1.0347,2.4657,0.076286,0,0,0,0
232.59,1.0456,2.471,0.07725,0,0,0,0
234.59,1.0581,2.476,0.07812,0,0,0,0
236.59,1.0699,2.481,0.079206,0,0,0,0
238.59,1.0811,2.4857,0.079981,0,0,0,0
240.59,1.0936,2.491,0.08119,0,0,0,0
242.59,1.1049,2.496,0.082334,0,0,0,0
244.59,1.1167,2.5,0.0832,0,0,0,0
246.59,1.1291,2.505,0.084188,0,0,0,0
248.59,1.1403,2.51,0.08536,0,0,0,0
250.59,1.1525,2.514,0.086407,0,0,0,0
252.59,1.1642,2.5183,0.087485,0,0,0,0
254.59,1.1756,2.523,0.088469,0,0,0,0
256.58,1.1879,2.5273,0.089728,0,0,0,0
258.58,1.199,2.5317,0.090711,0,0,0,0
260.59,1.2109,2.536,0.091936,0,0,0,0
262.59,1.2231,2.54,0.092978,0,0,0,0
264.58,1.2343,2.544,0.094048,0,0,0,0
266.59,1.2462,2.5484,0.095454,0,0,0,0
268.59,1.2584,2.5523,0.096704,0,0,0,0
270.58,1.2697,2.556,0.097892,0,0,0,0
272.59,1.2821,2.56,0.098896,0,0,0,0
274.58,1.2938,2.564,0.1002,0,0,0,0
276.59,1.3051,2.5676,0.10142,0,0,0,0
278.58,1.3178,2.5717,0.10299,0,0,0,0
280.59,1.3292,2.575,0.10421,0,0,0,0
282.58,1.3414,2.579,0.10542,0,0,0,0
284.58,1.3536,2.5824,0.1069,0,0,0,0
286.58,1.3654,2.5856,0.10831,0,0,0,0
288.58,1.3782,2.5893,0.10988,0,0,0,0
290.58,1.3897,2.5927,0.11105,0,0,0,0
292.58,1.4017,2.596,0.11267,0,0,0,0
294.59,1.4146,2.5993,0.11417,0,0,0,0
296.58,1.4262,2.6023,0.11555,0,0,0,0
298.58,1.4389,2.605,0.1171,0,0,0,0
300.58,1.4506,2.6083,0.11868,0,0,0,0
302.59,1.4627,2.6117,0.12035,0,0,0,0
304.58,1.4756,2.6147,0.12187,0,0,0,0
306.58,1.4874,2.6173,0.12347,0,0,0,0
308.59,1.4994,2.62,0.12514,0,0,0,0
310.58,1.5121,2.6227,0.12685,0,0,0,0
312.58,1.5242,2.6257,0.12848,0,0,0,0
314.58,1.5366,2.6283,0.13037,0,0,0,0
316.58,1.5487,2.6307,0.13225,0,0,0,0
318.58,1.561,2.6333,0.13413,0,0,0,0
320.58,1.5739,2.6354,0.13607,0,0,0,0
322.58,1.586,2.6377,0.13785,0,0,0,0
324.58,1.5987,2.64,0.13978,0,0,0,0
326.58,1.6111,2.6423,0.14194,0,0,0,0
328.58,1.623,2.6447,0.14406,0,0,0,0
330.58,1.6364,2.646,0.1463,0,0,0,0
332.58,1.6483,2.6477,0.14827,0,0,0,0
334.58,1.6606,2.6493,0.15044,0,0,0,0
336.58,1.6736,2.6517,0.15275,0,0,0,0
338.58,1.6858,2.653,0.15535,0,0,0,0
340.58,1.6988,2.6547,0.15776,0,0,0,0
342.58,1.7109,2.656,0.16026,0,0,0,0
344.58,1.7237,2.6577,0.16297,0,0,0,0
346.58,1.7367,2.6583,0.16573,0,0,0,0
348.58,1.7491,2.6593,0.16854,0,0,0,0
350.58,1.7621,2.66,0.17168,0,0,0,0
352.58,1.7747,2.6617,0.17462,0,0,0,0
354.58,1.7876,2.662,0.17794,0,0,0,0
356.58,1.8011,2.662,0.18122,0,0,0,0
358.58,1.8134,2.662,0.18472,0,0,0,0
360.58,1.8266,2.6623,0.18818,0,0,0,0
362.58,1.8404,2.6624,0.19216,0,0,0,0
364.58,1.8528,2.662,0.19629,0,0,0,0
366.58,1.8661,2.6617,0.20015,0,0,0,0
368.58,1.8787,2.661,0.20424,0,0,0,0
370.58,1.8921,2.6597,0.20894,0,0,0,0
372.58,1.9057,2.6583,0.21364,0,0,0,0
374.58,1.9182,2.656,0.2184,0,0,0,0
376.58,1.9319,2.654,0.2233,0,0,0,0
378.58,1.9451,2.6517,0.22853,0,0,0,0
380.58,1.9585,2.648,0.23418,0,0,0,0
382.58,1.9722,2.644,0.24004,0,0,0,0
384.58,1.985,2.6403,0.24565,0,0,0,0
386.58,1.999,2.6357,0.25198,0,0,0,0
388.58,2.0125,2.63,0.25823,0,0,0,0
390.58,2.0264,2.624,0.26453,0,0,0,0
392.58,2.0401,2.617,0.27143,0,0,0,0
394.58,2.0536,2.6094,0.2781,0,0,0,0
396.58,2.0682,2.601,0.28524,0,0,0,0
398.58,2.0817,2.5917,0.29237,0,0,0,0
400.58,2.0962,2.5807,0.29988,0,0,0,0
402.58,2.1103,2.5694,0.30749,0,0,0,0
404.58,2.1247,2.5563,0.31526,0,0,0,0
406.58,2.1395,2.543,0.32297,0,0,0,0
408.58,2.1532,2.528,0.33113,0,0,0,0
410.58,2.1685,2.513,0.33891,0,0,0,0
412.58,2.183,2.4957,0.34695,0,0,0,0
414.58,2.1978,2.4764,0.35585,0,0,0,0
416.58,2.2128,2.456,0.36427,0,0,0,0
418.58,2.2274,2.434,0.37316,0,0,0,0
420.58,2.2432,2.4107,0.38217,0,0,0,0
422.58,2.2579,2.3836,0.39186,0,0,0,0
424.58,2.2741,2.355,0.40184,0,0,0,0
426.58,2.2901,2.3194,0.41237,0,0,0,0
427.08,2.2942,2.3063,0.41535,0,0,0,0

File: NT20_45_1.csv
Time[s],Displacement[mm],Force[kN],AxStrain_1,AxStrain_2,Thickness[mm],OuterWidth[mm],InnerWidth[mm]
0.58,0,-0.0051959,0,0,1.1144,20,9.9496
3.08,0.002291,0.087855,0.00021598,0,0,0,0
5.58,0.00377,0.173,0.00024097,0,0,0,0
8.08,0.004968,0.25785,0.00021198,0,0,0,0
10.58,0.006732,0.31814,0.0004469,0,0,0,0
13.08,0.008798,0.38914,0.00053686,0,0,0,0
15.58,0.010357,0.46486,0.0004569,0,0,0,0
18.08,0.011552,0.54,0.00057384,0,0,0,0
20.58,0.013436,0.62014,0.00066078,0,0,0,0
23.08,0.016105,0.69715,0.00083265,0,0,0,0
25.58,0.018203,0.778,0.0010035,0,0,0,0
28.08,0.019754,0.85571,0.00094955,0,0,0,0
30.58,0.02154,0.93386,0.0010235,0,0,0,0
33.08,0.023967,1.0124,0.0011513,0,0,0,0
35.58,0.026653,1.0881,0.0013251,0,0,0,0
38.08,0.029261,1.162,0.001396,0,0,0,0
40.58,0.031612,1.2313,0.0014589,0,0,0,0
43.08,0.036372,1.2951,0.0020998,0,0,0,0
45.58,0.043204,1.3386,0.0035058,0,0,0,0
48.08,0.051983,1.3767,0.0047527,0,0,0,0
50.58,0.062666,1.41,0.0052233,0,0,0,0
53.08,0.072932,1.4396,0.0062514,0,0,0,0
55.58,0.084256,1.4666,0.0076923,0,0,0,0
58.08,0.096187,1.492,0.0090509,0,0,0,0
60.58,0.10786,1.5163,0.0095661,0,0,0,0
63.08,0.12067,1.538,0.010158,0,0,0,0
65.58,0.13247,1.5597,0.011656,0,0,0,0
68.08,0.14553,1.5796,0.012737,0,0,0,0
70.58,0.15774,1.5997,0.013327,0,0,0,0
73.08,0.17041,1.618,0.013814,0,0,0,0
75.58,0.18338,1.6363,0.015214,0,0,0,0
78.08,0.19628,1.6537,0.016446,0,0,0,0
80.58,0.20974,1.6711,0.016965,0,0,0,0
83.08,0.22214,1.6876,0.017595,0,0,0,0
85.58,0.23601,1.704,0.018854,0,0,0,0
88.08,0.24913,1.72,0.019971,0,0,0,0
90.58,0.26298,1.735,0.020563,0,0,0,0
93.08,0.27663,1.7504,0.021247,0,0,0,0
95.58,0.29052,1.765,0.022295,0,0,0,0
98.08,0.30451,1.78,0.023365,0,0,0,0
100.58,0.31816,1.7944,0.024122,0,0,0,0
103.08,0.33244,1.808,0.025023,0,0,0,0
105.58,0.34607,1.8217,0.025691,0,0,0,0
108.08,0.36067,1.835,0.026636,0,0,0,0
110.58,0.37429,1.8483,0.027426,0,0,0,0
113.08,0.38898,1.8613,0.028335,0,0,0,0
115.58,0.40252,1.8737,0.029248,0,0,0,0
118.08,0.41704,1.886,0.029999,0,0,0,0
120.58,0.43098,1.8983,0.030975,0,0,0,0
123.08,0.44527,1.91,0.031691,0,0,0,0
125.58,0.45953,1.9217,0.032634,0,0,0,0
128.08,0.47371,1.9337,0.033381,0,0,0,0
130.58,0.48827,1.9444,0.034225,0,0,0,0
133.08,0.50171,1.956,0.035165,0,0,0,0
135.58,0.51691,1.967,0.036008,0,0,0,0
138.08,0.53084,1.978,0.036849,0,0,0,0
140.58,0.54567,1.9887,0.037529,0,0,0,0
143.08,0.5596,1.999,0.038596,0,0,0,0
145.58,0.57429,2.01,0.039371,0,0,0,0
148.08,0.58842,2.02,0.040177,0,0,0,0
150.58,0.60292,2.03,0.041112,0,0,0,0
153.08,0.61723,2.04,0.041627,0,0,0,0
155.58,0.63158,2.0497,0.042561,0,0,0,0
158.08,0.64628,2.059,0.04359,0,0,0,0
160.58,0.66066,2.0683,0.044329,0,0,0,0
163.08,0.67557,2.078,0.0451,0,0,0,0
165.58,0.68941,2.0873,0.046126,0,0,0,0
168.08,0.70464,2.0967,0.047183,0,0,0,0
170.58,0.71884,2.1057,0.04792,0,0,0,0
173.08,0.73377,2.1143,0.04872,0,0,0,0
175.58,0.74786,2.1233,0.049616,0,0,0,0
178.08,0.76278,2.132,0.050732,0,0,0,0
180.58,0.77699,2.1407,0.051403,0,0,0,0
183.08,0.79205,2.1487,0.052263,0,0,0,0
185.58,0.80652,2.1567,0.053314,0,0,0,0
188.08,0.82099,2.165,0.054014,0,0,0,0
190.58,0.83569,2.173,0.055064,0,0,0,0
193.08,0.84989,2.181,0.05589,0,0,0,0
195.58,0.86456,2.1887,0.056619,0,0,0,0
198.08,0.87875,2.1963,0.057697,0,0,0,0
200.58,0.89383,2.204,0.05868,0,0,0,0
203.08,0.90767,2.2113,0.059535,0,0,0,0
205.58,0.92304,2.2187,0.060293,0,0,0,0
208.08,0.93724,2.226,0.061304,0,0,0,0
210.58,0.95183,2.2333,0.062252,0,0,0,0
213.08,0.96633,2.2407,0.063009,0,0,0,0
215.58,0.98127,2.2477,0.063923,0,0,0,0
218.08,0.9957,2.255,0.064835,0,0,0,0
220.58,1.0103,2.2613,0.065842,0,0,0,0
223.08,1.0249,2.268,0.066817,0,0,0,0
225.58,1.0392,2.2747,0.067632,0,0,0,0
228.08,1.0538,2.2813,0.068636,0,0,0,0
230.58,1.0681,2.288,0.06967,0,0,0,0
233.08,1.0831,2.294,0.07064,0,0,0,0
235.58,1.097,2.3007,0.071485,0,0,0,0
238.08,1.112,2.307,0.072422,0,0,0,0
240.58,1.1261,2.313,0.073359,0,0,0,0
243.08,1.1413,2.319,0.074419,0,0,0,0
245.58,1.1556,2.325,0.075416,0,0,0,0
248.08,1.1706,2.331,0.076194,0,0,0,0
250.58,1.1849,2.3367,0.07719,0,0,0,0
253.08,1.1996,2.3427,0.078308,0,0,0,0
255.58,1.2144,2.348,0.079331,0,0,0,0
258.08,1.229,2.3537,0.080232,0,0,0,0
260.58,1.2435,2.3597,0.081284,0,0,0,0
263.08,1.2576,2.365,0.082305,0,0,0,0
265.58,1.2725,2.37,0.083233,0,0,0,0
268.08,1.2865,2.3753,0.084344,0,0,0,0
270.58,1.3014,2.3803,0.085147,0,0,0,0
273.08,1.3153,2.386,0.086318,0,0,0,0
275.58,1.3307,2.391,0.087518,0,0,0,0
278.08,1.345,2.396,0.088533,0,0,0,0
280.58,1.3597,2.401,0.0897,0,0,0,0
283.08,1.3742,2.406,0.090651,0,0,0,0
285.58,1.3887,2.411,0.091877,0,0,0,0
288.08,1.4033,2.416,0.093071,0,0,0,0
290.58,1.4178,2.42,0.093928,0,0,0,0
293.08,1.433,2.425,0.094936,0,0,0,0
295.58,1.4471,2.4297,0.096218,0,0,0,0
298.08,1.462,2.4343,0.097467,0,0,0,0
300.58,1.4762,2.439,0.098411,0,0,0,0
303.08,1.4913,2.443,0.099749,0,0,0,0
305.58,1.5053,2.4477,0.10087,0,0,0,0
308.08,1.5198,2.452,0.10212,0,0,0,0
310.58,1.5341,2.4563,0.10318,0,0,0,0
313.08,1.5489,2.4604,0.10415,0,0,0,0
315.58,1.5631,2.4643,0.10569,0,0,0,0
318.08,1.5781,2.4687,0.10678,0,0,0,0
320.58,1.5924,2.4727,0.10771,0,0,0,0
323.08,1.6073,2.477,0.10916,0,0,0,0
325.58,1.622,2.4807,0.1103,0,0,0,0
328.08,1.6368,2.4847,0.1115,0,0,0,0
330.58,1.6514,2.4887,0.11276,0,0,0,0
333.08,1.6659,2.492,0.11387,0,0,0,0
335.58,1.6813,2.4957,0.1154,0,0,0,0
338.08,1.6956,2.4993,0.11659,0,0,0,0
340.58,1.7104,2.503,0.11773,0,0,0,0
343.08,1.7249,2.5067,0.11913,0,0,0,0
345.58,1.74,2.51,0.12065,0,0,0,0
348.08,1.7545,2.5137,0.12181,0,0,0,0
350.58,1.7696,2.517,0.12318,0,0,0,0
353.08,1.7842,2.5203,0.1246,0,0,0,0
355.58,1.7991,2.5237,0.12608,0,0,0,0
358.08,1.8138,2.527,0.12738,0,0,0,0
360.58,1.8295,2.5303,0.12877,0,0,0,0
363.08,1.8444,2.5327,0.13037,0,0,0,0
365.58,1.8595,2.536,0.13181,0,0,0,0
368.08,1.8745,2.5393,0.13343,0,0,0,0
370.58,1.8897,2.5427,0.13472,0,0,0,0
373.08,1.9046,2.545,0.13639,0,0,0,0
375.58,1.9196,2.5483,0.13776,0,0,0,0
378.08,1.9346,2.5513,0.1392,0,0,0,0
380.58,1.9498,2.5533,0.14092,0,0,0,0
383.08,1.9649,2.5563,0.14235,0,0,0,0
385.58,1.9796,2.5593,0.14404,0,0,0,0
388.08,1.9949,2.5613,0.14566,0,0,0,0
390.58,2.0098,2.5647,0.14743,0,0,0,0
393.08,2.0251,2.567,0.14894,0,0,0,0
395.58,2.0397,2.5697,0.15067,0,0,0,0
398.08,2.0553,2.5717,0.1526,0,0,0,0
400.58,2.0704,2.5747,0.15436,0,0,0,0
403.08,2.0862,2.5767,0.15609,0,0,0,0
405.58,2.101,2.579,0.15818,0,0,0,0
408.08,2.1169,2.5813,0.15995,0,0,0,0
410.58,2.132,2.5837,0.16181,0,0,0,0
413.08,2.1476,2.5853,0.16355,0,0,0,0
415.58,2.1628,2.5877,0.16572,0,0,0,0
418.08,2.1784,2.5893,0.16762,0,0,0,0
420.58,2.1936,2.5917,0.16964,0,0,0,0
423.08,2.2094,2.593,0.17156,0,0,0,0
425.58,2.2244,2.5953,0.17349,0,0,0,0
428.08,2.2398,2.597,0.17554,0,0,0,0
430.58,2.2557,2.599,0.17771,0,0,0,0
433.08,2.2712,2.6007,0.17987,0,0,0,0
435.58,2.2869,2.6027,0.1822,0,0,0,0
438.08,2.3026,2.6037,0.18457,0,0,0,0
440.58,2.3185,2.605,0.18683,0,0,0,0
443.08,2.3337,2.6063,0.18928,0,0,0,0
445.58,2.3499,2.608,0.19181,0,0,0,0
448.08,2.3655,2.6093,0.19449,0,0,0,0
450.58,2.3817,2.6107,0.19675,0,0,0,0
453.08,2.3969,2.6117,0.19926,0,0,0,0
455.58,2.4134,2.613,0.20179,0,0,0,0
458.08,2.4287,2.614,0.2045,0,0,0,0
460.58,2.4448,2.615,0.20734,0,0,0,0
463.08,2.4603,2.616,0.21031,0,0,0,0
465.58,2.4767,2.6167,0.21322,0,0,0,0
468.08,2.4922,2.6173,0.21617,0,0,0,0
470.58,2.5084,2.618,0.21927,0,0,0,0
473.08,2.5246,2.6187,0.22272,0,0,0,0
475.58,2.541,2.619,0.22621,0,0,0,0
478.08,2.5571,2.619,0.22976,0,0,0,0
480.58,2.5735,2.6194,0.23341,0,0,0,0
483.08,2.5893,2.6197,0.23692,0,0,0,0
485.58,2.6058,2.62,0.2411,0,0,0,0
488.08,2.6222,2.62,0.24512,0,0,0,0
490.58,2.6386,2.619,0.24921,0,0,0,0
493.08,2.6546,2.619,0.25342,0,0,0,0
495.58,2.6715,2.618,0.25801,0,0,0,0
498.08,2.6881,2.6173,0.2628,0,0,0,0
500.58,2.705,2.6167,0.26779,0,0,0,0
503.08,2.721,2.6153,0.27281,0,0,0,0
505.58,2.7377,2.6137,0.27829,0,0,0,0
508.08,2.7543,2.6123,0.2842,0,0,0,0
510.58,2.7711,2.6103,0.2902,0,0,0,0
513.08,2.7877,2.6083,0.29641,0,0,0,0
515.58,2.8046,2.6053,0.30266,0,0,0,0
518.08,2.8212,2.6023,0.30916,0,0,0,0
520.58,2.8378,2.5987,0.31583,0,0,0,0
523.08,2.8549,2.595,0.323,0,0,0,0
525.58,2.8719,2.5907,0.33036,0,0,0,0
528.08,2.8889,2.585,0.33781,0,0,0,0
530.58,2.9059,2.5793,0.34601,0,0,0,0
533.08,2.923,2.572,0.35391,0,0,0,0
535.58,2.9402,2.5643,0.36247,0,0,0,0
538.08,2.9575,2.5554,0.3715,0,0,0,0
540.58,2.9751,2.5453,0.38062,0,0,0,0
543.08,2.9924,2.5337,0.39017,0,0,0,0
545.58,3.0103,2.52,0.39931,0,0,0,0
548.08,3.028,2.5053,0.40939,0,0,0,0
550.58,3.0462,2.4883,0.42036,0,0,0,0
553.08,3.0643,2.4691,0.43242,0,0,0,0
555.58,3.0832,2.4467,0.44494,0,0,0,0
558.08,3.1021,2.4194,0.45928,0,0,0,0
559.08,3.1099,2.4049,0.4655,0,0,0,0