Folder: ethz/polyN_optimization/results_exp/AA6014-T4 (part 2)

File: CH_90_3.csv
Time[s],Displacement[mm],Force[kN],AxStrain_1,AxStrain_2,Thickness[mm],OuterWidth[mm],Diameter[mm]
0.64,0,-0.005123,0,0,1.1245,20.044,5.2046
3.14,0.00182,0.093137,0.00040792,-5.5002e-05,0,0,0
5.64,0.002928,0.18285,0.00043291,2e-05,0,0,0
8.14,0.003751,0.24172,0.00031395,0.00013699,0,0,0
10.64,0.005168,0.31771,0.00039592,0.00018098,0,0,0
13.14,0.00664,0.39114,0.00058083,0.00039592,0,0,0
15.64,0.007648,0.46815,0.00058783,0.00026197,0,0,0
18.14,0.008319,0.54557,0.00059782,0.00036893,0,0,0
20.64,0.009884,0.62585,0.00079568,0.00041991,0,0,0
23.14,0.012046,0.70671,0.00061381,0.00048688,0,0,0
25.64,0.013818,0.78729,0.0010574,0.00068177,0,0,0
28.14,0.014493,0.86985,0.00087961,0.00069476,0,0,0
30.64,0.015521,0.94715,0.0010305,0.00081567,0,0,0
33.14,0.017542,1.0283,0.0011374,0.0010475,0,0,0
35.64,0.019747,1.1054,0.0013251,0.0011983,0,0,0
38.14,0.021174,1.1839,0.0015029,0.001402,0,0,0
40.64,0.021916,1.2606,0.0014959,0.0012552,0,0,0
43.14,0.023521,1.3371,0.0018144,0.001419,0,0,0
45.64,0.025851,1.411,0.0022505,0.001992,0,0,0
48.14,0.027513,1.4857,0.0025418,0.0020559,0,0,0
50.64,0.028933,1.5601,0.0024979,0.0020958,0,0,0
53.14,0.030843,1.6299,0.0029068,0.0024949,0,0,0
55.64,0.032911,1.7011,0.003452,0.0028868,0,0,0
58.14,0.034956,1.7699,0.0042818,0.0035218,0,0,0
60.64,0.037346,1.8379,0.0043983,0.00375,0,0,0
63.14,0.041026,1.8999,0.0049935,0.0042141,0,0,0
65.64,0.0454,1.9561,0.0063548,0.005294,0,0,0
68.14,0.050533,2.0017,0.0085375,0.0072884,0,0,0
70.64,0.058658,2.041,0.0098018,0.0088904,0,0,0
73.14,0.067353,2.0787,0.01118,0.010074,0,0,0
75.64,0.075548,2.1123,0.013413,0.012077,0,0,0
78.14,0.085727,2.146,0.015685,0.014541,0,0,0
80.64,0.094943,2.1764,0.017271,0.016508,0,0,0
83.14,0.10469,2.2073,0.018794,0.017891,0,0,0
85.64,0.11507,2.2363,0.020848,0.019867,0,0,0
88.14,0.12477,2.2641,0.023236,0.022129,0,0,0
90.64,0.13549,2.292,0.024734,0.023957,0,0,0
93.14,0.14572,2.3177,0.026583,0.025617,0,0,0
95.64,0.15643,2.344,0.02859,0.027725,0,0,0
98.14,0.16772,2.368,0.030442,0.029614,0,0,0
100.64,0.17807,2.3927,0.032453,0.03145,0,0,0
103.14,0.18973,2.4157,0.034226,0.033492,0,0,0
105.64,0.20054,2.439,0.03594,0.035447,0,0,0
108.14,0.21173,2.4606,0.037885,0.0373,0,0,0
110.64,0.22307,2.4827,0.039751,0.039105,0,0,0
113.14,0.23338,2.5037,0.041222,0.040996,0,0,0
115.64,0.245,2.524,0.043051,0.042754,0,0,0
118.14,0.25514,2.544,0.044904,0.044582,0,0,0
120.64,0.26597,2.5623,0.046635,0.046315,0,0,0
123.14,0.27601,2.5794,0.048141,0.048044,0,0,0
125.64,0.28464,2.5944,0.049548,0.049451,0,0,0
128.14,0.29329,2.608,0.050889,0.051048,0,0,0
130.64,0.30085,2.621,0.052069,0.051972,0,0,0
133.14,0.30848,2.6347,0.053089,0.05315,0,0,0
135.64,0.31751,2.6477,0.054393,0.054392,0,0,0
138.14,0.32552,2.661,0.05576,0.055821,0,0,0
140.64,0.33531,2.6737,0.057187,0.056995,0,0,0
143.14,0.34454,2.6853,0.058518,0.05839,0,0,0
145.64,0.3536,2.6977,0.059816,0.060003,0,0,0
148.14,0.36408,2.71,0.061364,0.061488,0,0,0
150.64,0.37317,2.7223,0.062469,0.06253,0,0,0
153.14,0.38248,2.7343,0.063698,0.063916,0,0,0
155.64,0.39216,2.746,0.06502,0.065175,0,0,0
158.14,0.40131,2.758,0.066151,0.066589,0,0,0
160.64,0.41115,2.769,0.067659,0.067688,0,0,0
163.14,0.41957,2.7803,0.068724,0.068849,0,0,0
165.64,0.42859,2.7916,0.069884,0.070445,0,0,0
168.14,0.43843,2.802,0.071229,0.071977,0,0,0
170.64,0.44701,2.813,0.072666,0.072946,0,0,0
173.14,0.45675,2.824,0.07354,0.074068,0,0,0
175.64,0.46631,2.834,0.074694,0.075283,0,0,0
178.14,0.47522,2.844,0.076063,0.076745,0,0,0
180.64,0.48497,2.8543,0.077401,0.077802,0,0,0
183.14,0.49387,2.864,0.078488,0.079044,0,0,0
185.64,0.50296,2.874,0.079511,0.080253,0,0,0
188.14,0.51191,2.8833,0.08072,0.081368,0,0,0
190.64,0.5203,2.893,0.082051,0.082697,0,0,0
193.14,0.5298,2.902,0.082979,0.083748,0,0,0
195.64,0.53846,2.912,0.08409,0.085074,0,0,0
198.14,0.54746,2.921,0.085355,0.086276,0,0,0
200.64,0.55706,2.9303,0.086495,0.087631,0,0,0
203.14,0.56555,2.9387,0.087572,0.088707,0,0,0
205.64,0.57452,2.948,0.08874,0.090057,0,0,0
208.14,0.58368,2.957,0.090214,0.091192,0,0,0
210.64,0.59174,2.965,0.091257,0.092294,0,0,0
213.14,0.60097,2.974,0.092359,0.09358,0,0,0
215.64,0.61024,2.982,0.09343,0.094985,0,0,0
218.14,0.61873,2.991,0.094806,0.096174,0,0,0
220.64,0.6281,2.9997,0.095904,0.097333,0,0,0
223.14,0.63696,3.008,0.097062,0.09849,0,0,0
225.64,0.64609,3.016,0.098127,0.099827,0,0,0
228.14,0.65519,3.0243,0.099283,0.10113,0,0,0
230.64,0.66348,3.0326,0.10083,0.10219,0,0,0
233.14,0.67275,3.0407,0.1018,0.10344,0,0,0
235.64,0.68154,3.049,0.10293,0.10486,0,0,0
238.14,0.69044,3.057,0.10408,0.1061,0,0,0
240.64,0.69984,3.0653,0.10562,0.10709,0,0,0
243.14,0.70881,3.0733,0.10682,0.10845,0,0,0
245.64,0.71814,3.0807,0.10773,0.11004,0,0,0
248.14,0.7275,3.0887,0.10902,0.11116,0,0,0
250.64,0.73586,3.0963,0.11056,0.11245,0,0,0
253.14,0.74503,3.1043,0.112,0.11383,0,0,0
255.64,0.75399,3.1113,0.1129,0.11508,0,0,0
258.14,0.76265,3.1197,0.11425,0.11619,0,0,0
260.64,0.77195,3.127,0.11566,0.11774,0,0,0
263.14,0.78062,3.1347,0.11682,0.11903,0,0,0
265.64,0.79015,3.1427,0.11823,0.12028,0,0,0
268.14,0.79915,3.15,0.11939,0.12153,0,0,0
270.64,0.80828,3.1574,0.12064,0.1234,0,0,0
273.14,0.81741,3.1643,0.12201,0.12461,0,0,0
275.64,0.82577,3.1713,0.12349,0.12565,0,0,0
278.14,0.83507,3.179,0.12477,0.12716,0,0,0
280.64,0.844,3.1863,0.12574,0.12869,0,0,0
283.14,0.8531,3.1937,0.12716,0.13029,0,0,0
285.64,0.8624,3.2003,0.12876,0.13126,0,0,0
288.14,0.87166,3.2077,0.13009,0.13267,0,0,0
290.64,0.88086,3.2143,0.13124,0.13446,0,0,0
293.14,0.8904,3.2217,0.1328,0.13575,0,0,0
295.64,0.89919,3.228,0.13397,0.1371,0,0,0
298.14,0.90802,3.235,0.1352,0.13854,0,0,0
300.64,0.91709,3.242,0.13676,0.13985,0,0,0
303.14,0.92568,3.249,0.13813,0.14113,0,0,0
305.64,0.93538,3.2557,0.13927,0.14291,0,0,0
308.14,0.94394,3.262,0.14079,0.14433,0,0,0
310.64,0.95314,3.2693,0.14213,0.14538,0,0,0
313.14,0.96264,3.2753,0.14388,0.14706,0,0,0
315.64,0.97127,3.2823,0.14498,0.14883,0,0,0
318.14,0.98067,3.2887,0.1464,0.15027,0,0,0
320.64,0.98943,3.295,0.14785,0.15178,0,0,0
323.14,0.99843,3.3017,0.14962,0.15319,0,0,0
325.64,1.0076,3.3077,0.15083,0.15466,0,0,0
328.14,1.0167,3.3147,0.15233,0.15621,0,0,0
330.64,1.026,3.3203,0.15397,0.1581,0,0,0
333.14,1.0351,3.3267,0.15547,0.15953,0,0,0
335.64,1.0438,3.333,0.15696,0.16085,0,0,0
338.14,1.053,3.339,0.15877,0.16222,0,0,0
340.64,1.0621,3.3453,0.15991,0.16433,0,0,0
343.14,1.0707,3.351,0.16157,0.16595,0,0,0
345.64,1.0798,3.357,0.163,0.16712,0,0,0
348.14,1.0886,3.3634,0.16462,0.16859,0,0,0
350.64,1.0979,3.3693,0.16624,0.17061,0,0,0
353.14,1.1068,3.3754,0.16772,0.17193,0,0,0
355.64,1.1161,3.381,0.16942,0.174,0,0,0
358.14,1.1252,3.3863,0.17104,0.17572,0,0,0
360.64,1.1342,3.3923,0.17239,0.17715,0,0,0
363.14,1.1433,3.398,0.1742,0.17886,0,0,0
365.64,1.1526,3.403,0.17612,0.18077,0,0,0
368.14,1.1612,3.409,0.17764,0.18251,0,0,0
370.64,1.1702,3.415,0.17915,0.18418,0,0,0
373.14,1.1791,3.421,0.18095,0.18614,0,0,0
375.64,1.1882,3.426,0.18274,0.18761,0,0,0
378.14,1.1975,3.432,0.18425,0.18903,0,0,0
380.64,1.2063,3.437,0.18598,0.19103,0,0,0
383.14,1.2151,3.442,0.18757,0.19322,0,0,0
385.64,1.224,3.448,0.18904,0.19471,0,0,0
388.14,1.233,3.453,0.19098,0.19653,0,0,0
390.64,1.2423,3.4584,0.19273,0.19835,0,0,0
393.14,1.2511,3.463,0.19447,0.2002,0,0,0
395.64,1.2603,3.469,0.19613,0.20209,0,0,0
398.14,1.2696,3.474,0.19789,0.20417,0,0,0
400.64,1.2789,3.479,0.19993,0.20625,0,0,0
403.14,1.2882,3.484,0.20193,0.20792,0,0,0
405.64,1.2973,3.489,0.20377,0.21026,0,0,0
408.14,1.3065,3.494,0.20544,0.21235,0,0,0
410.64,1.3158,3.4993,0.20735,0.21406,0,0,0
413.14,1.3249,3.5044,0.20931,0.21636,0,0,0
415.64,1.3345,3.509,0.21152,0.21828,0,0,0
418.14,1.3435,3.514,0.21369,0.22001,0,0,0
420.64,1.3531,3.519,0.21534,0.22264,0,0,0
423.14,1.3625,3.524,0.21729,0.22492,0,0,0
425.64,1.3713,3.5283,0.21939,0.22669,0,0,0
428.14,1.3807,3.533,0.22147,0.2288,0,0,0
430.64,1.3902,3.5383,0.2237,0.23139,0,0,0
433.14,1.3993,3.543,0.22533,0.23357,0,0,0
435.64,1.4089,3.5473,0.22753,0.2353,0,0,0
438.14,1.4183,3.552,0.22991,0.23805,0,0,0
440.64,1.428,3.5567,0.23236,0.24064,0,0,0
443.14,1.4374,3.561,0.23446,0.24257,0,0,0
445.64,1.4472,3.5657,0.23671,0.2453,0,0,0
448.14,1.4569,3.57,0.23909,0.24824,0,0,0
450.64,1.4663,3.574,0.24126,0.25034,0,0,0
453.14,1.4756,3.579,0.24371,0.25292,0,0,0
455.64,1.4855,3.5833,0.24602,0.25573,0,0,0
458.14,1.495,3.588,0.24872,0.25817,0,0,0
460.64,1.505,3.5917,0.25123,0.26115,0,0,0
463.14,1.5147,3.596,0.25363,0.26383,0,0,0
465.64,1.5248,3.6003,0.25626,0.26654,0,0,0
468.14,1.5346,3.604,0.25899,0.26921,0,0,0
470.64,1.5446,3.6083,0.26186,0.27239,0,0,0
473.14,1.5547,3.6127,0.26457,0.27545,0,0,0
475.64,1.5648,3.6163,0.26745,0.27883,0,0,0
478.14,1.5747,3.621,0.27022,0.28167,0,0,0
480.64,1.585,3.6244,0.27319,0.28463,0,0,0
483.14,1.5951,3.628,0.27663,0.28796,0,0,0
485.64,1.6057,3.632,0.27976,0.29155,0,0,0
488.14,1.616,3.6357,0.28262,0.29451,0,0,0
490.64,1.6266,3.6397,0.28593,0.29825,0,0,0
493.14,1.6373,3.6427,0.2895,0.30181,0,0,0
495.64,1.6479,3.6467,0.29274,0.30523,0,0,0
498.14,1.6589,3.65,0.29634,0.3094,0,0,0
500.64,1.6697,3.653,0.29968,0.31282,0,0,0
503.14,1.6804,3.6563,0.30361,0.31691,0,0,0
505.64,1.6914,3.6593,0.30739,0.32099,0,0,0
508.14,1.7026,3.6623,0.31116,0.32485,0,0,0
510.64,1.7138,3.6647,0.31521,0.32936,0,0,0
513.14,1.725,3.6673,0.31978,0.33345,0,0,0
515.64,1.7369,3.6707,0.32409,0.33801,0,0,0
518.14,1.7483,3.6726,0.32879,0.34305,0,0,0
520.64,1.7601,3.675,0.33308,0.34736,0,0,0
523.14,1.7718,3.6773,0.33785,0.3524,0,0,0
525.64,1.7843,3.679,0.34301,0.35779,0,0,0
528.14,1.7969,3.6807,0.34801,0.36228,0,0,0
530.64,1.8093,3.682,0.35394,0.36823,0,0,0
533.14,1.8222,3.683,0.35951,0.37411,0,0,0
535.64,1.8355,3.683,0.36523,0.38003,0,0,0
538.14,1.8491,3.683,0.37194,0.38675,0,0,0
540.64,1.8628,3.6824,0.37817,0.39314,0,0,0
543.13,1.8772,3.6813,0.38514,0.40066,0,0,0
545.64,1.8917,3.6797,0.39229,0.40709,0,0,0
548.13,1.9065,3.677,0.40017,0.41413,0,0,0
550.64,1.9219,3.674,0.40781,0.42228,0,0,0
553.14,1.9374,3.6683,0.41606,0.4302,0,0,0
555.63,1.9533,3.6627,0.42482,0.43859,0,0,0
558.14,1.9696,3.6546,0.43386,0.44762,0,0,0
560.63,1.9863,3.6447,0.44324,0.45668,0,0,0
563.13,2.0036,3.6294,0.4537,0.46631,0,0,0
564.13,2.0111,3.6163,0.45796,0.4716,0,0,0

File: NT6_00_1.csv
Time[s],Displacement[mm],Force[kN],AxStrain_1,AxStrain_2,Thickness[mm],OuterWidth[mm],InnerWidth[mm]
0.59,0,-0.0045575,0,0,1.1167,20,10
2.59,0.001442,0.064714,0.00020898,0,0,0,0
4.59,0.002931,0.14114,0.00014599,0,0,0,0
6.59,0.004118,0.21242,0.00025297,0,0,0,0
8.59,0.00398,0.25129,0.00028096,0,0,0,0
10.59,0.006025,0.30914,0.00018098,0,0,0,0
12.59,0.007392,0.369,0.00030395,0,0,0,0
14.59,0.008893,0.42615,0.00041991,0,0,0,0
16.59,0.009266,0.48814,0.00033194,0,0,0,0
18.59,0.010229,0.548,0.00042591,0,0,0,0
20.59,0.01166,0.61215,0.00039992,0,0,0,0
22.59,0.013442,0.67314,0.00038593,0,0,0,0
24.59,0.015235,0.73614,0.0004499,0,0,0,0
26.59,0.016272,0.79786,0.00055385,0,0,0,0
28.59,0.017034,0.85929,0.0007757,0,0,0,0
30.59,0.018112,0.922,0.00075871,0,0,0,0
32.59,0.019777,0.98086,0.00076171,0,0,0,0
34.59,0.022107,1.0441,0.00087562,0,0,0,0
36.59,0.023924,1.1027,0.00095954,0,0,0,0
38.59,0.025146,1.1639,0.00092257,0,0,0,0
40.59,0.026623,1.2211,0.00098352,0,0,0,0
42.59,0.028506,1.2794,0.0010105,0,0,0,0
44.59,0.031011,1.3349,0.0012582,0,0,0,0
46.59,0.033612,1.3883,0.0013151,0,0,0,0
48.59,0.036671,1.4366,0.0018782,0,0,0,0
50.59,0.041613,1.4786,0.002465,0,0,0,0
52.59,0.04784,1.5164,0.0031102,0,0,0,0
54.59,0.054085,1.548,0.004001,0,0,0,0
56.59,0.060739,1.5783,0.0053606,0,0,0,0
58.59,0.0689,1.6047,0.0065257,0,0,0,0
60.59,0.07681,1.6304,0.0070253,0,0,0,0
62.59,0.084786,1.6546,0.0076457,0,0,0,0
64.59,0.093354,1.677,0.008478,0,0,0,0
66.59,0.10235,1.6997,0.0098087,0,0,0,0
68.59,0.11075,1.7196,0.010832,0,0,0,0
70.59,0.1201,1.741,0.011343,0,0,0,0
72.59,0.12962,1.76,0.011721,0,0,0,0
74.59,0.13872,1.7796,0.012507,0,0,0,0
76.59,0.14833,1.7977,0.013674,0,0,0,0
78.59,0.15844,1.8157,0.014776,0,0,0,0
80.59,0.16783,1.8333,0.015292,0,0,0,0
82.59,0.17778,1.8503,0.015712,0,0,0,0
84.59,0.18829,1.8673,0.016501,0,0,0,0
86.59,0.19778,1.8836,0.017363,0,0,0,0
88.59,0.20819,1.9001,0.018537,0,0,0,0
90.59,0.21859,1.9157,0.019028,0,0,0,0
92.59,0.22844,1.932,0.019567,0,0,0,0
94.59,0.23919,1.9467,0.020134,0,0,0,0
96.59,0.24944,1.9614,0.021052,0,0,0,0
98.59,0.2594,1.976,0.021936,0,0,0,0
100.59,0.2704,1.99,0.022543,0,0,0,0
102.59,0.28078,2.0047,0.023041,0,0,0,0
104.59,0.29078,2.0177,0.023812,0,0,0,0
106.59,0.30205,2.0313,0.024648,0,0,0,0
108.59,0.31223,2.044,0.025388,0,0,0,0
110.59,0.32283,2.058,0.026101,0,0,0,0
112.59,0.33407,2.0703,0.026723,0,0,0,0
114.59,0.34435,2.083,0.027419,0,0,0,0
116.59,0.35523,2.095,0.028365,0,0,0,0
118.59,0.36644,2.107,0.028822,0,0,0,0
120.59,0.37676,2.119,0.029571,0,0,0,0
122.59,0.38817,2.1303,0.030191,0,0,0,0
124.59,0.3992,2.142,0.030972,0,0,0,0
126.59,0.40966,2.1533,0.031753,0,0,0,0
128.59,0.42152,2.1647,0.032436,0,0,0,0
130.59,0.4325,2.1754,0.033183,0,0,0,0
132.59,0.44341,2.1857,0.033736,0,0,0,0
134.59,0.4547,2.1963,0.034644,0,0,0,0
136.59,0.46568,2.2067,0.035325,0,0,0,0
138.59,0.47653,2.2173,0.036005,0,0,0,0
140.59,0.48823,2.2273,0.036685,0,0,0,0
142.59,0.49885,2.2377,0.037396,0,0,0,0
144.59,0.51034,2.247,0.038139,0,0,0,0
146.59,0.52174,2.2563,0.038753,0,0,0,0
148.59,0.53246,2.2657,0.039496,0,0,0,0
150.59,0.54396,2.275,0.040238,0,0,0,0
152.59,0.55519,2.284,0.040883,0,0,0,0
154.59,0.56616,2.2927,0.041592,0,0,0,0
156.59,0.57804,2.302,0.042364,0,0,0,0
158.59,0.58895,2.3103,0.043169,0,0,0,0
160.59,0.60003,2.319,0.043844,0,0,0,0
162.59,0.61177,2.3273,0.044389,0,0,0,0
164.59,0.62249,2.336,0.045096,0,0,0,0
166.59,0.63434,2.344,0.045833,0,0,0,0
168.59,0.64587,2.352,0.046603,0,0,0,0
170.59,0.65681,2.36,0.047276,0,0,0,0
172.59,0.66885,2.368,0.048076,0,0,0,0
174.59,0.68003,2.376,0.048843,0,0,0,0
176.59,0.69121,2.3836,0.049706,0,0,0,0
178.59,0.70301,2.391,0.050473,0,0,0,0
180.59,0.71402,2.399,0.051175,0,0,0,0
182.59,0.72549,2.4067,0.051876,0,0,0,0
184.59,0.73739,2.4137,0.052609,0,0,0,0
186.59,0.74819,2.421,0.053342,0,0,0,0
188.59,0.76009,2.428,0.053978,0,0,0,0
190.59,0.77152,2.435,0.054836,0,0,0,0
192.59,0.7826,2.4417,0.055598,0,0,0,0
194.59,0.79456,2.4483,0.056456,0,0,0,0
196.59,0.80581,2.4553,0.057153,0,0,0,0
198.59,0.81708,2.462,0.057977,0,0,0,0
200.59,0.82949,2.4687,0.058864,0,0,0,0
202.59,0.84044,2.4753,0.059687,0,0,0,0
204.59,0.8518,2.4813,0.060509,0,0,0,0
206.59,0.86361,2.4883,0.06133,0,0,0,0
208.59,0.87452,2.4947,0.062056,0,0,0,0
210.59,0.88682,2.5003,0.062907,0,0,0,0
212.59,0.89836,2.5067,0.063727,0,0,0,0
214.59,0.90951,2.5127,0.06464,0,0,0,0
216.59,0.92163,2.5187,0.065646,0,0,0,0
218.59,0.93301,2.5247,0.066401,0,0,0,0
220.59,0.94455,2.5307,0.067374,0,0,0,0
222.59,0.95665,2.5367,0.068189,0,0,0,0
224.59,0.96758,2.5423,0.069036,0,0,0,0
226.59,0.97956,2.5473,0.070101,0,0,0,0
228.59,0.99129,2.553,0.071165,0,0,0,0
230.59,1.0023,2.5587,0.072134,0,0,0,0
232.59,1.0143,2.5647,0.07282,0,0,0,0
234.59,1.0259,2.5697,0.073818,0,0,0,0
236.59,1.0376,2.5747,0.074847,0,0,0,0
238.59,1.0498,2.58,0.075812,0,0,0,0
240.59,1.0606,2.5853,0.076932,0,0,0,0
242.59,1.0728,2.5903,0.077988,0,0,0,0
244.59,1.0843,2.5957,0.078795,0,0,0,0
246.59,1.0958,2.6003,0.079943,0,0,0,0
248.59,1.108,2.605,0.08081,0,0,0,0
250.59,1.1193,2.61,0.0818,0,0,0,0
252.59,1.1307,2.615,0.082821,0,0,0,0
254.59,1.1428,2.6197,0.083995,0,0,0,0
256.58,1.154,2.624,0.08489,0,0,0,0
258.59,1.1657,2.629,0.085937,0,0,0,0
260.58,1.1778,2.633,0.087108,0,0,0,0
262.58,1.1893,2.637,0.088522,0,0,0,0
264.58,1.2012,2.6414,0.089504,0,0,0,0
266.58,1.2123,2.646,0.090517,0,0,0,0
268.59,1.2239,2.6503,0.09156,0,0,0,0
270.58,1.2363,2.654,0.092936,0,0,0,0
272.59,1.2478,2.658,0.094099,0,0,0,0
274.58,1.2597,2.6623,0.095503,0,0,0,0
276.58,1.2717,2.6663,0.096723,0,0,0,0
278.58,1.2831,2.67,0.09785,0,0,0,0
280.59,1.2955,2.674,0.09928,0,0,0,0
282.58,1.3074,2.6777,0.10083,0,0,0,0
284.59,1.3192,2.681,0.10219,0,0,0,0
286.58,1.332,2.685,0.10332,0,0,0,0
288.58,1.3432,2.6883,0.1048,0,0,0,0
290.58,1.3553,2.6917,0.10622,0,0,0,0
292.58,1.3674,2.6957,0.10782,0,0,0,0
294.58,1.3787,2.6987,0.10905,0,0,0,0
296.59,1.3918,2.7013,0.11058,0,0,0,0
298.58,1.4032,2.705,0.11215,0,0,0,0
300.58,1.4152,2.708,0.11392,0,0,0,0
302.58,1.4278,2.711,0.11553,0,0,0,0
304.58,1.4394,2.7137,0.11727,0,0,0,0
306.58,1.4516,2.7167,0.11876,0,0,0,0
308.58,1.4635,2.7193,0.1204,0,0,0,0
310.58,1.4749,2.722,0.12215,0,0,0,0
312.58,1.4881,2.7247,0.12414,0,0,0,0
314.58,1.4998,2.7273,0.12583,0,0,0,0
316.58,1.512,2.7297,0.1279,0,0,0,0
318.58,1.5247,2.732,0.12996,0,0,0,0
320.58,1.5366,2.734,0.13211,0,0,0,0
322.58,1.5494,2.7363,0.13411,0,0,0,0
324.58,1.5617,2.7387,0.13614,0,0,0,0
326.58,1.5742,2.7403,0.13856,0,0,0,0
328.58,1.5869,2.742,0.14087,0,0,0,0
330.58,1.5986,2.7437,0.14355,0,0,0,0
332.58,1.6113,2.7453,0.14573,0,0,0,0
334.58,1.6237,2.7467,0.14811,0,0,0,0
336.58,1.6358,2.748,0.15079,0,0,0,0
338.58,1.6485,2.749,0.15368,0,0,0,0
340.58,1.6609,2.7503,0.15664,0,0,0,0
342.58,1.6736,2.751,0.15942,0,0,0,0
344.58,1.6865,2.7517,0.16265,0,0,0,0
346.58,1.6989,2.752,0.16607,0,0,0,0
348.58,1.7124,2.7527,0.1695,0,0,0,0
350.58,1.725,2.752,0.17321,0,0,0,0
352.58,1.7375,2.7523,0.17684,0,0,0,0
354.58,1.7511,2.7516,0.18086,0,0,0,0
356.58,1.7636,2.751,0.18486,0,0,0,0
358.58,1.7772,2.7497,0.18931,0,0,0,0
360.58,1.7903,2.7483,0.19394,0,0,0,0
362.58,1.8036,2.7463,0.19852,0,0,0,0
364.58,1.8172,2.744,0.20352,0,0,0,0
366.58,1.83,2.741,0.20898,0,0,0,0
368.58,1.8438,2.738,0.21441,0,0,0,0
370.58,1.8574,2.734,0.22003,0,0,0,0
372.58,1.8708,2.729,0.2261,0,0,0,0
374.58,1.8849,2.7237,0.23208,0,0,0,0
376.58,1.8979,2.7177,0.23864,0,0,0,0
378.58,1.9121,2.7103,0.2452,0,0,0,0
380.58,1.9258,2.702,0.25199,0,0,0,0
382.58,1.9394,2.6933,0.25903,0,0,0,0
384.58,1.9539,2.683,0.26619,0,0,0,0
386.58,1.9673,2.6717,0.27344,0,0,0,0
388.58,1.9821,2.659,0.28087,0,0,0,0
390.58,1.9964,2.645,0.28875,0,0,0,0
392.58,2.0106,2.629,0.2967,0,0,0,0
394.58,2.0255,2.6127,0.30458,0,0,0,0
396.58,2.0399,2.5936,0.31279,0,0,0,0
398.58,2.0557,2.5733,0.32111,0,0,0,0
400.58,2.0697,2.5507,0.32984,0,0,0,0
402.58,2.086,2.5263,0.33881,0,0,0,0
404.58,2.1013,2.5004,0.34787,0,0,0,0
406.58,2.117,2.4707,0.35729,0,0,0,0
408.58,2.1333,2.4386,0.36695,0,0,0,0
410.58,2.1493,2.4019,0.37737,0,0,0,0
412.08,2.1626,2.3679,0.38549,0,0,0,0