Folder: ethz/polyN_optimization/results_exp/AA7020-T6

Note: README.md
**MODELLING AND CALIBRATING A POLYN YIELD SURFACE FUNCTION**

---

In the context of my research assistant internship at ETH Zurich, I have to implement and find an operationnal strategy to calibrate a yield surface function based on the polyN model which is a homogenous polynomial of degree N.

To make the calibration operationnal please copy paste a folder "{material}_results" containing the csv files for a given material in the lab_data directory and then change the parameters you want in the polyN_optimization/param.txt. Then run polyN_optimization/optimize_polyN.py. The coefficients of the polyN function will be accessible in the polyN_coeff.npy file.

File: _SL_120_NT20_90_2.csv
Time[s];Displacement[mm];Force[kN];AxStrain_1;AxStrain_2;Thickness[mm];OuterWidth[mm];InnerWidth[mm]
0;0;0.0051;0;0;1.024;20;10
1.4761;-0.001020788;-0.0038;-0.000293025;0;0;0;0
2.9761;-0.002095929;0.0013;-0.000191246;0;0;0;0
4.4761;-0.001505583;-0.0063;-0.00029127;0;0;0;0
5.9762;-0.002837937;0.0016;-0.000243889;0;0;0;0
7.476;0.002335434;0.0051;0.000354323;0;0;0;0
8.976;0.002222169;0.146;0.000285924;0;0;0;0
10.476;0.006927226;0.2816;0.000473572;0;0;0;0
11.9759;0.0137654;0.4023;0.001446322;0;0;0;0
13.476;0.0183884;0.5265;0.000661185;0;0;0;0
14.9759;0.0259638;0.7003;0.001479607;0;0;0;0
16.4758;0.0235637;0.8141;0.001950728;0;0;0;0
17.9758;0.031879;0.968;0.003429201;0;0;0;0
19.4758;0.035747;1.0862;0.001768611;0;0;0;0
20.9757;0.0391276;1.2445;0.002110053;0;0;0;0
22.4757;0.0473094;1.3463;0.00343095;0;0;0;0
23.9758;0.0501843;1.5071;0.003705407;0;0;0;0
25.4757;0.0551795;1.6354;0.003100452;0;0;0;0
26.9758;0.0599589;1.7514;0.003969305;0;0;0;0
28.4756;0.064456;1.881;0.005408157;0;0;0;0
29.9756;0.069493;1.9998;0.003366258;0;0;0;0
31.4755;0.073761;2.1325;0.004166746;0;0;0;0
32.9755;0.0787948;2.2631;0.006135525;0;0;0;0
34.4755;0.0829167;2.4034;0.004266325;0;0;0;0
35.9754;0.0891634;2.5143;0.004533567;0;0;0;0
37.4754;0.0964943;2.6252;0.006264547;0;0;0;0
38.9754;0.101478;2.7131;0.006771757;0;0;0;0
40.4754;0.106604;2.7817;0.006459792;0;0;0;0
41.9753;0.114407;2.843;0.007668765;0;0;0;0
43.4753;0.123572;2.9052;0.01024558;0;0;0;0
44.9753;0.131212;2.964;0.009627194;0;0;0;0
46.4752;0.140934;3.0007;0.0104348;0;0;0;0
47.9752;0.146097;3.0531;0.0126616;0;0;0;0
49.4753;0.157992;3.0714;0.0134858;0;0;0;0
50.9751;0.165158;3.1195;0.0136987;0;0;0;0
52.4751;0.173368;3.1476;0.0141434;0;0;0;0
53.9751;0.182932;3.1688;0.0162117;0;0;0;0
55.4751;0.189414;3.2032;0.0168709;0;0;0;0
56.975;0.197452;3.2222;0.0181484;0;0;0;0
58.475;0.204063;3.2563;0.0183861;0;0;0;0
59.9749;0.215998;3.268;0.0196323;0;0;0;0
61.475;0.22723;3.3059;0.0206588;0;0;0;0
62.9749;0.235288;3.3154;0.0223518;0;0;0;0
64.4748;0.245307;3.3258;0.0228767;0;0;0;0
65.9748;0.254331;3.3442;0.0236429;0;0;0;0
67.4748;0.260876;3.3796;0.0258524;0;0;0;0
68.9747;0.272498;3.3878;0.0261122;0;0;0;0
70.4747;0.280925;3.4305;0.0263857;0;0;0;0
71.9747;0.291734;3.4181;0.02721745;0;0;0;0
73.4747;0.300414;3.439;0.0290954;0;0;0;0
74.9746;0.305546;3.4605;0.0290204;0;0;0;0
76.4746;0.318292;3.4415;0.0306789;0;0;0;0
77.9746;0.328283;3.4621;0.0316822;0;0;0;0
79.4745;0.336749;3.5035;0.0323126;0;0;0;0
80.9746;0.347315;3.5041;0.0333516;0;0;0;0
82.4745;0.355792;3.5164;0.0340098;0;0;0;0
83.9746;0.365254;3.5297;0.0345913;0;0;0;0
85.4745;0.3751;3.536;0.0360257;0;0;0;0
86.9745;0.386647;3.5597;0.036469;0;0;0;0
88.4743;0.392947;3.5714;0.037578;0;0;0;0
89.9743;0.402722;3.5638;0.0371994;0;0;0;0
91.4744;0.413855;3.5894;0.0394332;0;0;0;0
92.9742;0.420007;3.584;0.039327;0;0;0;0
94.4742;0.431698;3.6251;0.040411;0;0;0;0
95.9743;0.441331;3.6318;0.0410359;0;0;0;0
97.4743;0.446905;3.6321;0.0406451;0;0;0;0
98.9741;0.45983;3.6457;0.0425199;0;0;0;0
100.4741;0.469271;3.6719;0.0433804;0;0;0;0
101.9741;0.475326;3.6855;0.0432695;0;0;0;0
103.4742;0.488266;3.6719;0.0448761;0;0;0;0
104.9741;0.498018;3.6807;0.0453741;0;0;0;0
106.474;0.507733;3.7117;0.04646499;0;0;0;0
107.9739;0.519214;3.7256;0.0476851;0;0;0;0
109.4739;0.524464;3.7351;0.0477085;0;0;0;0
110.9739;0.533893;3.731;0.0489355;0;0;0;0
112.4739;0.546455;3.7225;0.0497287;0;0;0;0
113.9738;0.557913;3.7468;0.0500876;0;0;0;0
115.4738;0.564415;3.768;0.0511283;0;0;0;0
116.9738;0.572427;3.7755;0.0520247;0;0;0;0
118.4737;0.583538;3.7575;0.05307;0;0;0;0
119.9737;0.593323;3.7755;0.0538301;0;0;0;0
121.4737;0.603695;3.7904;0.0550961;0;0;0;0
122.9736;0.613435;3.7974;0.0563986;0;0;0;0
124.4736;0.623816;3.81;0.05678154;0;0;0;0
125.9736;0.633345;3.804;0.0583649;0;0;0;0
127.4736;0.640581;3.8264;0.0586842;0;0;0;0
128.9736;0.650842;3.8173;0.0600201;0;0;0;0
130.4736;0.661551;3.8441;0.0610423;0;0;0;0
131.9736;0.675246;3.835;0.0615489;0;0;0;0
133.4734;0.679573;3.8343;0.0628891;0;0;0;0
134.9734;0.692178;3.8451;0.0640861;0;0;0;0
136.4734;0.698961;3.8571;0.0639726;0;0;0;0
137.9733;0.708704;3.8571;0.0657582;0;0;0;0
139.4734;0.720041;3.8678;0.0659011;0;0;0;0
140.9733;0.729121;3.8783;0.0673848;0;0;0;0
142.4734;0.741826;3.8843;0.0676488;0;0;0;0
143.9732;0.749045;3.8583;0.0688008;0;0;0;0
145.4733;0.758284;3.9042;0.0695866;0;0;0;0
146.9733;0.770074;3.8997;0.0709962;0;0;0;0
148.4731;0.780613;3.8931;0.0717183;0;0;0;0
149.9732;0.788222;3.9133;0.0727465;0;0;0;0
151.4731;0.79534;3.9225;0.0734151;0;0;0;0
152.973;0.80711;3.926;0.07469076;0;0;0;0
154.4731;0.815949;3.9348;0.0762867;0;0;0;0
155.9729;0.827965;3.9269;0.0773167;0;0;0;0
157.4729;0.838175;3.926;0.0782289;0;0;0;0
158.9729;0.846936;3.9351;0.0799034;0;0;0;0
160.4729;0.85537;3.9456;0.0810446;0;0;0;0
161.973;0.866536;3.9636;0.0814037;0;0;0;0
163.4728;0.878012;3.9471;0.083399;0;0;0;0
164.9728;0.883434;3.9516;0.084404;0;0;0;0
166.4727;0.895389;3.9784;0.0850407;0;0;0;0
167.9727;0.903986;3.9573;0.0854048;0;0;0;0
169.4727;0.915356;3.9699;0.08674409;0;0;0;0
170.9728;0.924625;3.9784;0.0873423;0;0;0;0
172.4726;0.93249;3.9724;0.0879563;0;0;0;0
173.9726;0.942046;3.9923;0.0892712;0;0;0;0
175.4726;0.954456;4.0078;0.0902592;0;0;0;0
176.9725;0.961691;3.9952;0.0914639;0;0;0;0
178.4725;0.972825;3.9863;0.0928462;0;0;0;0
179.9726;0.983236;4.0119;0.0937923;0;0;0;0
181.4724;0.992024;4.0157;0.0939807;0;0;0;0
182.9724;1.00223;4.0037;0.0962683;0;0;0;0
184.4724;1.01294;4.0281;0.09672226;0;0;0;0
185.9724;1.0227;4.0078;0.0985426;0;0;0;0
187.4723;1.03134;4.0201;0.0994372;0;0;0;0
188.9723;1.04052;4.0164;0.100636;0;0;0;0
190.4723;1.05021;4.0284;0.101441;0;0;0;0
191.9723;1.06583;4.0274;0.102267;0;0;0;0
193.4722;1.07257;4.0262;0.103908;0;0;0;0
194.9722;1.0813;4.0464;0.104978;0;0;0;0
196.4721;1.09084;4.0271;0.10569;0;0;0;0
197.9722;1.10042;4.0518;0.10853;0;0;0;0
199.4722;1.11039;4.0524;0.108576;0;0;0;0
200.972;1.11941;4.0486;0.111017;0;0;0;0
202.472;1.12993;4.0511;0.112172;0;0;0;0
203.9721;1.14162;4.0777;0.113673;0;0;0;0
205.4721;1.14819;4.0676;0.114742;0;0;0;0
206.9719;1.16109;4.0694;0.116888;0;0;0;0
208.4719;1.17134;4.0751;0.117889;0;0;0;0
209.9718;1.17939;4.0742;0.119768;0;0;0;0
211.4719;1.1874;4.0748;0.121803;0;0;0;0
212.9718;1.20034;4.084;0.123614;0;0;0;0
214.4717;1.20868;4.0682;0.123992;0;0;0;0
215.9719;1.21761;4.0647;0.126339;0;0;0;0
217.4717;1.22862;4.0524;0.127376;0;0;0;0
218.9717;1.24221;4.0954;0.129141;0;0;0;0
220.4718;1.24761;4.0811;0.130817;0;0;0;0
221.9716;1.2594;4.0663;0.132564;0;0;0;0
223.4716;1.26876;4.0853;0.133603;0;0;0;0
224.9715;1.27999;4.0935;0.135745;0;0;0;0
226.4715;1.28917;4.0761;0.137907;0;0;0;0
227.9715;1.29987;4.0881;0.138773;0;0;0;0
229.4716;1.30762;4.0802;0.141324;0;0;0;0
230.9714;1.32032;4.0998;0.142335;0;0;0;0
232.4714;1.32536;4.0903;0.144339;0;0;0;0
233.9713;1.33691;4.1115;0.147161;0;0;0;0
235.4713;1.34578;4.0802;0.148116;0;0;0;0
236.9713;1.35914;4.1064;0.149662;0;0;0;0
238.4713;1.36816;4.083;0.153638;0;0;0;0
239.9713;1.37738;4.0957;0.155285;0;0;0;0
241.4712;1.38859;4.0849;0.156707;0;0;0;0
242.9713;1.39787;4.0979;0.159153;0;0;0;0
244.4711;1.40848;4.1001;0.160575;0;0;0;0
245.9712;1.4168;4.1146;0.162007;0;0;0;0
247.4711;1.42604;4.1175;0.163966;0;0;0;0
248.971;1.43674;4.1014;0.165271;0;0;0;0
250.471;1.44581;4.1115;0.168599;0;0;0;0
251.971;1.45637;4.1061;0.169798;0;0;0;0
253.4709;1.46889;4.1127;0.171963;0;0;0;0
254.9709;1.47539;4.1067;0.174118;0;0;0;0
256.4709;1.48499;4.1187;0.175821;0;0;0;0
257.9708;1.49962;4.1124;0.179681;0;0;0;0
259.4708;1.50534;4.1203;0.180407;0;0;0;0
260.9708;1.5167;4.1213;0.18226;0;0;0;0
262.4707;1.52659;4.115;0.1853;0;0;0;0
263.9707;1.53522;4.1074;0.186383;0;0;0;0
265.4708;1.54443;4.0815;0.188972;0;0;0;0
266.9707;1.55609;4.1014;0.191586;0;0;0;0
268.4706;1.56684;4.0985;0.192388;0;0;0;0
269.9706;1.57568;4.1064;0.19304;0;0;0;0
271.4706;1.5853;4.1184;0.196729;0;0;0;0
272.9705;1.59738;4.0843;0.199894;0;0;0;0
274.4705;1.60544;4.096;0.199715;0;0;0;0
275.9705;1.61515;4.1039;0.203521;0;0;0;0
277.4704;1.62579;4.1004;0.205094;0;0;0;0
278.9706;1.6349;4.1146;0.208838;0;0;0;0
280.4704;1.64508;4.1232;0.21171;0;0;0;0
281.9703;1.65809;4.0909;0.214186;0;0;0;0
283.4703;1.66575;4.1121;0.218405;0;0;0;0
284.9703;1.67616;4.0988;0.221201;0;0;0;0
286.4703;1.68571;4.0653;0.224252;0;0;0;0
287.9702;1.69273;4.1131;0.226036;0;0;0;0
289.4702;1.70672;4.0856;0.229665;0;0;0;0
290.9702;1.71681;4.0966;0.2315029;0;0;0;0
292.4701;1.7263;4.0941;0.235636;0;0;0;0
293.9701;1.73735;4.1052;0.239155;0;0;0;0
295.4702;1.7456;4.09;0.242766;0;0;0;0
296.97;1.75808;4.077;0.244026;0;0;0;0
298.47;1.76607;4.1007;0.251245;0;0;0;0
299.97;1.77559;4.0606;0.254154;0;0;0;0
301.4699;1.78682;4.0789;0.258679;0;0;0;0
302.9701;1.79658;4.0732;0.26178;0;0;0;0
304.47;1.80739;4.0612;0.265615;0;0;0;0
305.97;1.8173;4.0827;0.269266;0;0;0;0
307.4698;1.82553;4.0723;0.272411;0;0;0;0
308.9698;1.8345;4.0761;0.275988;0;0;0;0
310.4699;1.84802;4.0559;0.28321;0;0;0;0
311.9697;1.85665;4.0499;0.286849;0;0;0;0
313.4698;1.86709;4.0495;0.291108;0;0;0;0
314.9697;1.87743;4.0423;0.296741;0;0;0;0
316.4696;1.88686;4.0192;0.30032;0;0;0;0
317.9696;1.89654;4.0189;0.305685;0;0;0;0
319.4696;1.90715;4.0258;0.31027;0;0;0;0
320.9696;1.91958;4.0078;0.313479;0;0;0;0
322.4695;1.92763;4.0148;0.318243;0;0;0;0
323.9695;1.93571;3.9996;0.323184;0;0;0;0
325.4695;1.94951;3.9705;0.327087;0;0;0;0
326.9694;1.96151;3.9629;0.331545;0;0;0;0
328.4694;1.97182;3.9633;0.336509;0;0;0;0
329.9695;1.98099;3.9449;0.340111;0;0;0;0
331.4693;1.99327;3.9456;0.346199;0;0;0;0
332.9694;2.00122;3.9288;0.349423;0;0;0;0
334.4694;2.01071;3.8972;0.356928;0;0;0;0

File: _SL_240_SH2_90_1.csv
Time[s];Displacement[mm];Force[kN];AxStrain_1;AxStrain_2;Thickness[mm];Width[mm];Inner width
0;0;0.0054;0;0;1.022;20;0
1;-6.20E-04;0.0051;0;0;0;0;0
2;-0.00111254;0.0038;0;0;0;0;0
2.9999;-0.001308383;0.0003;0;0;0;0;0
3.9999;-4.06E-04;0.0063;0;0;0;0;0
5.0002;0.004919405;0.0259;0;0;0;0;0
6.0001;0.0108722;0.0481;0;0;0;0;0
6.9998;0.0162419;0.074;0;0;0;0;0
7.9998;0.0215478;0.0929;0;0;0;0;0
9;0.0273488;0.1173;0;0;0;0;0
10;0.032995;0.1438;0;0;0;0;0
10.9998;0.0387626;0.1571;0;0;0;0;0
11.9997;0.0449649;0.1745;0;0;0;0;0
12.9999;0.0500107;0.1975;0;0;0;0;0
13.9997;0.0554773;0.2159;0;0;0;0;0
14.9998;0.0619652;0.2323;0;0;0;0;0
15.9997;0.06817516;0.2475;0;0;0;0;0
16.9996;0.0741597;0.2623;0;0;0;0;0
17.9998;0.079538;0.2762;0;0;0;0;0
18.9997;0.0854691;0.2901;0;0;0;0;0
19.9999;0.0920102;0.3006;0;0;0;0;0
20.9996;0.0966174;0.3119;0;0;0;0;0
21.9995;0.104676;0.3258;0;0;0;0;0
22.9995;1.12E-01;0.3277;0;0;0;0;0
23.9998;0.117827;0.3397;0;0;0;0;0
24.9998;1.22E-01;0.3492;0;0;0;0;0
25.9996;0.129724;0.3578;0;0;0;0;0
26.9994;0.136526;0.3657;0;0;0;0;0
27.9994;1.42E-01;0.3698;0;0;0;0;0
28.9995;0.147832;0.3698;0;0;0;0;0
29.9997;1.54E-01;0.3799;0;0;0;0;0
30.9995;0.160463;0.3862;0;0;0;0;0
31.9994;0.167378;0.395;0;0;0;0;0
32.9995;0.173539;0.4026;0;0;0;0;0
33.9996;1.81E-01;0.402;0;0;0;0;0
34.9996;1.89E-01;0.415;0;0;0;0;0
35.9994;1.95E-01;0.4162;0;0;0;0;0
36.9994;2.01E-01;0.4077;0;0;0;0;0
37.9995;0.206691;0.4191;0;0;0;0;0
38.9993;2.13E-01;0.4241;0;0;0;0;0
39.9995;0.22011;0.4276;0;0;0;0;0
40.9993;0.226415;0.4279;0;0;0;0;0
41.9993;0.232884;0.4361;0;0;0;0;0
42.9994;0.239389;0.4415;0;0;0;0;0
43.9992;2.46E-01;0.4415;0;0;0;0;0
44.9992;2.54E-01;0.4431;0;0;0;0;0
45.9992;2.60E-01;0.4399;0;0;0;0;0
46.9991;2.66E-01;0.4497;0;0;0;0;0
47.9991;0.272526;0.4475;0;0;0;0;0
48.9992;2.79E-01;0.451;0;0;0;0;0
49.9991;2.85E-01;0.45;0;0;0;0;0
50.9994;2.92E-01;0.4611;0;0;0;0;0
51.999;2.98E-01;0.457;0;0;0;0;0
52.9992;0.305749;0.4595;0;0;0;0;0
53.9993;0.31197;0.4614;0;0;0;0;0
54.9991;0.318476;0.4567;0;0;0;0;0
55.999;0.325088;0.4583;0;0;0;0;0
56.9991;3.32E-01;0.4602;0;0;0;0;0
57.9989;3.39E-01;0.4589;0;0;0;0;0
58.999;0.346425;0.4646;0;0;0;0;0
59.9992;0.353496;0.4639;0;0;0;0;0
60.999;0.358949;0.4639;0;0;0;0;0
61.9989;3.65E-01;0.4665;0;0;0;0;0
62.9988;0.372409;0.4579;0;0;0;0;0
63.9989;0.378709;0.463;0;0;0;0;0
64.9991;3.86E-01;0.4627;0;0;0;0;0
65.9989;0.391727;0.463;0;0;0;0;0
66.9988;3.99E-01;0.4633;0;0;0;0;0
67.9987;0.405396;0.463;0;0;0;0;0
68.9988;0.412335;0.4595;0;0;0;0;0
69.9988;0.418791;0.4611;0;0;0;0;0
70.9988;0.42563;0.4614;0;0;0;0;0
71.9988;0.433211;0.4592;0;0;0;0;0
72.9989;4.39E-01;0.4567;0;0;0;0;0
73.9987;0.444998;0.4586;0;0;0;0;0
74.9989;4.53E-01;0.4589;0;0;0;0;0
75.9987;0.459133;0.4564;0;0;0;0;0
76.9986;0.466659;0.4529;0;0;0;0;0
77.9988;0.471994;0.4564;0;0;0;0;0
78.9987;0.479497;0.4554;0;0;0;0;0
79.9987;0.48585;0.4551;0;0;0;0;0
80.9988;0.493098;0.4586;0;0;0;0;0
81.9986;0.499455;0.456;0;0;0;0;0
82.9987;5.06E-01;0.4519;0;0;0;0;0
83.9986;5.13E-01;0.4491;0;0;0;0;0
84.9985;5.20E-01;0.4481;0;0;0;0;0
85.9985;5.27E-01;0.4529;0;0;0;0;0
86.9984;0.533251;0.4481;0;0;0;0;0
87.9984;5.39E-01;0.444;0;0;0;0;0
88.9985;0.546436;0.4437;0;0;0;0;0
89.9985;0.55312;0.4456;0;0;0;0;0
90.9987;0.560408;0.4462;0;0;0;0;0
91.9983;5.68E-01;0.445;0;0;0;0;0
92.9983;5.74E-01;0.444;0;0;0;0;0
93.9984;5.81E-01;0.4431;0;0;0;0;0
94.9986;0.58786;0.4447;0;0;0;0;0
95.9984;0.594491;0.4437;0;0;0;0;0
96.9982;6.01E-01;0.4421;0;0;0;0;0
97.9985;0.607532;0.4415;0;0;0;0;0
98.9983;0.614108;0.4462;0;0;0;0;0
99.9983;6.21E-01;0.4434;0;0;0;0;0
100.9983;6.28E-01;0.4443;0;0;0;0;0
101.9983;0.634451;0.4412;0;0;0;0;0
102.9982;6.42E-01;0.4412;0;0;0;0;0
103.9984;0.647565;0.433;0;0;0;0;0
104.9982;6.54E-01;0.4361;0;0;0;0;0
105.9982;0.660737;0.4383;0;0;0;0;0
106.9981;0.668133;0.4409;0;0;0;0;0
107.9981;0.674704;0.4383;0;0;0;0;0
108.9981;0.680553;0.4393;0;0;0;0;0
109.9981;0.687602;0.4358;0;0;0;0;0
110.9981;6.94E-01;0.4339;0;0;0;0;0
111.998;7.02E-01;0.4333;0;0;0;0;0
112.998;7.08E-01;0.4289;0;0;0;0;0
113.9981;0.715049;0.4339;0;0;0;0;0
114.998;0.72283;0.4383;0;0;0;0;0
115.9983;0.728875;0.4248;0;0;0;0;0
116.9979;0.735514;0.4314;0;0;0;0;0
117.9979;0.742049;0.4327;0;0;0;0;0
118.998;0.748543;0.4346;0;0;0;0;0
119.998;0.756397;0.4311;0;0;0;0;0
120.9983;0.762877;0.4298;0;0;0;0;0
121.9979;0.769453;0.4301;0;0;0;0;0
122.998;0.775176;0.4263;0;0;0;0;0
123.9979;0.783311;0.4263;0;0;0;0;0
124.9979;7.90E-01;0.4276;0;0;0;0;0
125.9979;7.96E-01;0.4304;0;0;0;0;0
126.9977;8.04E-01;0.4244;0;0;0;0;0
127.9979;0.809531;0.426;0;0;0;0;0
128.9978;0.817877;0.4229;0;0;0;0;0
129.998;0.824299;0.4225;0;0;0;0;0
130.9978;0.831866;0.4203;0;0;0;0;0
131.9977;8.38E-01;0.4235;0;0;0;0;0
132.9977;0.843509;0.4188;0;0;0;0;0
133.9979;0.850831;0.4244;0;0;0;0;0
134.9979;0.858152;0.4248;0;0;0;0;0
135.9977;0.864689;0.42;0;0;0;0;0
136.9976;0.871467;0.4213;0;0;0;0;0
137.9978;8.78E-01;0.4213;0;0;0;0;0
138.9979;0.884953;0.4175;0;0;0;0;0
139.9976;0.890813;0.4194;0;0;0;0;0
140.9976;8.99E-01;0.4083;0;0;0;0;0
141.9976;0.905652;0.4178;0;0;0;0;0
142.9975;0.912495;0.4156;0;0;0;0;0
143.9976;0.918863;0.4172;0;0;0;0;0
144.9975;0.925332;0.4153;0;0;0;0;0
145.9975;0.932684;0.4153;0;0;0;0;0
146.9975;9.39E-01;0.4109;0;0;0;0;0
147.9974;0.945949;0.4071;0;0;0;0;0
148.9975;0.951854;0.4112;0;0;0;0;0
149.9975;0.95942;0.4096;0;0;0;0;0
150.9975;0.966482;0.4156;0;0;0;0;0
151.9973;0.972716;0.4115;0;0;0;0;0
152.9973;0.97918;0.4077;0;0;0;0;0
153.9974;0.986526;0.4109;0;0;0;0;0
154.9976;0.992818;0.415;0;0;0;0;0
155.9976;0.999738;0.4061;0;0;0;0;0
156.9972;1.0069;0.4061;0;0;0;0;0
157.9972;1.01348;0.409;0;0;0;0;0
158.9973;1.02194;0.3988;0;0;0;0;0
159.9973;1.02759;0.4048;0;0;0;0;0
160.9975;1.03E+00;0.4067;0;0;0;0;0
161.9971;1.04106;0.4004;0;0;0;0;0
162.9971;1.04772;0.4004;0;0;0;0;0
163.9972;1.05554;0.3944;0;0;0;0;0
164.9972;1.06151;0.3979;0;0;0;0;0
165.9972;1.06918;0.3969;0;0;0;0;0
166.9971;1.07598;0.3976;0;0;0;0;0
167.9973;1.08E+00;0.3941;0;0;0;0;0
168.9973;1.0881;0.3922;0;0;0;0;0
169.9973;1.09468;0.389;0;0;0;0;0
170.9973;1.10334;0.3903;0;0;0;0;0
171.997;1.11196;0.3846;0;0;0;0;0
172.997;1.11794;0.3811;0;0;0;0;0
173.9972;1.12E+00;0.3789;0;0;0;0;0
174.997;1.13051;0.3736;0;0;0;0;0
175.997;1.13776;0.3717;0;0;0;0;0
176.997;1.14E+00;0.3729;0;0;0;0;0
177.9969;1.15106;0.3619;0;0;0;0;0
178.997;1.15727;0.359;0;0;0;0;0
179.997;1.1654;0.3578;0;0;0;0;0
180.9969;1.17171;0.3527;0;0;0;0;0
181.9968;1.17847;0.3464;0;0;0;0;0
182.997;1.18693;0.3366;0;0;0;0;0
183.9969;1.19239;0.3366;0;0;0;0;0
184.9971;1.19997;0.335;0;0;0;0;0
185.9971;1.20685;0.3255;0;0;0;0;0
186.9969;1.21349;0.3198;0;0;0;0;0
187.9967;1.22077;0.3186;0;0;0;0;0
188.997;1.227;0.311;0;0;0;0;0
189.997;1.23E+00;0.3059;0;0;0;0;0
190.997;1.24163;0.3015;0;0;0;0;0
191.9966;1.24781;0.2923;0;0;0;0;0
192.9966;1.25587;0.2867;0;0;0;0;0
193.9969;1.26282;0.2832;0;0;0;0;0
194.9967;1.26894;0.2759;0;0;0;0;0
195.9967;1.28E+00;0.2734;0;0;0;0;0
196.9967;1.28305;0.2655;0;0;0;0;0
197.9968;1.28997;0.2642;0;0;0;0;0
198.9966;1.30E+00;0.2525;0;0;0;0;0
199.9966;1.30E+00;0.2547;0;0;0;0;0
200.9966;1.3112;0.2532;0;0;0;0;0
201.9965;1.31737;0.2525;0;0;0;0;0
202.9965;1.32519;0.2437;0;0;0;0;0
203.9967;1.33214;0.2383;0;0;0;0;0
204.9965;1.33866;0.2216;0;0;0;0;0
205.9965;1.34585;0.232;0;0;0;0;0
206.9964;1.35245;0.2285;0;0;0;0;0
207.9964;1.36063;0.2282;0;0;0;0;0
208.9965;1.36631;0.2165;0;0;0;0;0
209.9967;1.37373;0.2155;0;0;0;0;0
210.9964;1.3802;0.2092;0;0;0;0;0
211.9965;1.38658;0.2127;0;0;0;0;0
212.9963;1.3941;0.2058;0;0;0;0;0
213.9964;1.40098;0.2029;0;0;0;0;0
214.9964;1.40763;0.2016;0;0;0;0;0
215.9963;1.41553;0.1931;0;0;0;0;0
216.9964;1.42166;0.1903;0;0;0;0;0
217.9962;1.42921;0.1843;0;0;0;0;0
218.9963;1.43568;0.1811;0;0;0;0;0
219.9963;1.44E+00;0.183;0;0;0;0;0
220.9963;1.44923;0.1792;0;0;0;0;0
221.9961;1.45656;0.1716;0;0;0;0;0
222.9961;1.46376;0.1704;0;0;0;0;0
223.9962;1.47077;0.1618;0;0;0;0;0
224.9962;1.47732;0.1587;0;0;0;0;0
225.9962;1.48481;0.1546;0;0;0;0;0
226.996;1.49179;0.1489;0;0;0;0;0
227.9961;1.4982;0.1407;0;0;0;0;0
228.9963;1.50535;0.1429;0;0;0;0;0
229.9963;1.51322;0.1353;0;0;0;0;0
230.9961;1.52E+00;0.122;0;0;0;0;0
231.996;1.52744;0.1113;0;0;0;0;0
232.996;1.53392;0.1081;0;0;0;0;0
233.996;1.54098;0.0948;0;0;0;0;0
234.996;1.54864;0.092;0;0;0;0;0
235.996;1.55513;0.0901;0;0;0;0;0
236.996;1.56247;0.0784;0;0;0;0;0
237.9961;1.56974;0.0771;0;0;0;0;0
238.996;1.57703;0.0661;0;0;0;0;0
239.996;1.58E+00;0.0676;0;0;0;0;0
240.9962;1.59122;0.0607;0;0;0;0;0
241.9958;1.60E+00;0.0563;0;0;0;0;0
242.9958;1.60541;0.0503;0;0;0;0;0
243.9959;1.61226;0.0522;0;0;0;0;0
244.9959;1.61913;0.0458;0;0;0;0;0
245.9961;1.62579;0.0446;0;0;0;0;0
246.9959;1.63229;0.0364;0;0;0;0;0
247.9957;1.63906;0.0281;0;0;0;0;0
248.9958;1.64644;0.036;0;0;0;0;0
249.9958;1.65272;0.0351;0;0;0;0;0
250.996;1.65971;0.0335;0;0;0;0;0
251.9956;1.66682;0.0297;0;0;0;0;0
252.9958;1.67318;0.0237;0;0;0;0;0
253.9957;1.68066;0.0288;0;0;0;0;0
254.9957;1.68824;0.0199;0;0;0;0;0
255.9957;1.69462;0.025;0;0;0;0;0
256.9957;1.7005;0.0215;0;0;0;0;0
257.9956;1.70792;0.0136;0;0;0;0;0
258.9956;1.71501;0.0215;0;0;0;0;0
259.9956;1.72091;0.0142;0;0;0;0;0
260.9956;1.72873;0.0127;0;0;0;0;0
261.9955;1.73457;0.0165;0;0;0;0;0
262.9955;1.74107;0.0139;0;0;0;0;0
263.9955;1.74813;0.0048;0;0;0;0;0
264.9955;1.75511;0.0133;0;0;0;0;0
265.9955;1.76146;0.0057;0;0;0;0;0
266.9954;1.76865;0.0035;0;0;0;0;0
267.9956;1.77548;-0.0022;0;0;0;0;0
268.9955;1.78284;0.0051;0;0;0;0;0
269.9954;1.78871;0.0076;0;0;0;0;0
270.9957;1.79619;0.006;0;0;0;0;0
271.9953;1.80252;-0.0019;0;0;0;0;0
272.9955;1.80993;0.0076;0;0;0;0;0
273.9954;1.81587;-0.0019;0;0;0;0;0
274.9956;1.82382;0.0013;0;0;0;0;0
;;;0;0;0;0;0
;;;0;0;0;0;0
;;;0;0;0;0;0
;;;0;0;0;0;0
;;;0;0;0;0;0
;;;0;0;0;0;0