Folder: ethz/polyN_optimization/results_exp/AA7020-T6 (part 2)

File: _SL_320_SH2_90_1.csv
Time[s];Displacement[mm];Force[kN];AxStrain_1;AxStrain_2;Thickness[mm];Width[mm];Inner width
0;0;0.0003;0;0;1.022;20;0
1.5001;-0.000357399;0;0;0;0;0;0
3;-0.000613595;0.0007;0;0;0;0;0
4.5003;-0.000922623;0;0;0;0;0;0
6;-0.000277099;0.0022;0;0;0;0;0
7.5001;-0.000560763;0;0;0;0;0;0
9.0002;0.003616758;0.0221;0;0;0;0;0
10.5;0.0114578;0.0515;0;0;0;0;0
11.9999;0.0215068;0.0812;0;0;0;0;0
13.4998;0.0288961;0.1053;0;0;0;0;0
15;0.038259;0.1271;0;0;0;0;0
16.4999;4.65E-02;0.1514;0;0;0;0;0
17.9997;0.0550447;0.1681;0;0;0;0;0
19.4998;6.40E-02;0.1836;0;0;0;0;0
21;0.0745955;0.1906;0;0;0;0;0
22.4997;0.08395529;0.1928;0;0;0;0;0
24;0.09263663;0.1969;0;0;0;0;0
25.4996;0.103244;0.1944;0;0;0;0;0
26.9997;0.113366;0.1969;0;0;0;0;0
28.4996;0.122702;0.201;0;0;0;0;0
29.9995;1.32E-01;0.1956;0;0;0;0;0
31.4996;1.43E-01;0.195;0;0;0;0;0
32.9995;0.152465;0.1953;0;0;0;0;0
34.4998;1.63E-01;0.1963;0;0;0;0;0
35.9997;1.72E-01;0.1893;0;0;0;0;0
37.4996;0.18256;0.1922;0;0;0;0;0
38.9995;1.92E-01;0.1877;0;0;0;0;0
40.4993;0.203668;0.1871;0;0;0;0;0
41.9994;0.212045;0.1833;0;0;0;0;0
43.4993;2.23E-01;0.1893;0;0;0;0;0
44.9994;2.32E-01;0.1855;0;0;0;0;0
46.4996;0.24172;0.1798;0;0;0;0;0
47.9992;0.251448;0.177;0;0;0;0;0
49.4993;0.261903;0.176;0;0;0;0;0
50.9993;2.72E-01;0.1741;0;0;0;0;0
52.4993;0.280595;0.1767;0;0;0;0;0
53.9992;0.29256;0.1729;0;0;0;0;0
55.4991;0.302412;0.1732;0;0;0;0;0
56.9992;3.13E-01;0.1688;0;0;0;0;0
58.4991;0.321777;0.1681;0;0;0;0;0
59.999;0.331617;0.1707;0;0;0;0;0
61.4991;0.341969;0.1653;0;0;0;0;0
62.999;0.352343;0.1659;0;0;0;0;0
64.4992;0.361694;0.1653;0;0;0;0;0
65.9992;0.371309;0.1662;0;0;0;0;0
67.4991;3.82E-01;0.1628;0;0;0;0;0
68.999;0.390665;0.165;0;0;0;0;0
70.4988;0.40289;0.1602;0;0;0;0;0
71.9989;0.413156;0.1615;0;0;0;0;0
73.4988;4.22E-01;0.159;0;0;0;0;0
74.9989;4.32E-01;0.1568;0;0;0;0;0
76.499;0.440922;0.1565;0;0;0;0;0
77.9989;0.451057;0.158;0;0;0;0;0
79.499;0.461872;0.1555;0;0;0;0;0
80.9988;0.471554;0.1552;0;0;0;0;0
82.4986;4.83E-01;0.1552;0;0;0;0;0
83.9989;4.92E-01;0.1517;0;0;0;0;0
85.4988;0.501312;0.1511;0;0;0;0;0
86.9987;0.51099;0.1523;0;0;0;0;0
88.4988;0.521122;0.1492;0;0;0;0;0
89.9987;0.531329;0.1508;0;0;0;0;0
91.4988;0.541462;0.1498;0;0;0;0;0
92.9986;5.52E-01;0.1498;0;0;0;0;0
94.4987;0.560992;0.1473;0;0;0;0;0
95.9987;0.570742;0.1486;0;0;0;0;0
97.4984;0.580869;0.1495;0;0;0;0;0
98.9987;0.590602;0.147;0;0;0;0;0
100.4985;0.600689;0.1479;0;0;0;0;0
101.9984;0.611206;0.1463;0;0;0;0;0
103.4983;6.21E-01;0.1476;0;0;0;0;0
104.9984;6.31E-01;0.1448;0;0;0;0;0
106.4985;6.40E-01;0.146;0;0;0;0;0
107.9983;0.650601;0.1438;0;0;0;0;0
109.4982;0.661064;0.1451;0;0;0;0;0
110.9983;6.71E-01;0.1473;0;0;0;0;0
112.4983;0.680996;0.1422;0;0;0;0;0
113.9982;0.690667;0.1429;0;0;0;0;0
115.4982;0.701209;0.1444;0;0;0;0;0
116.9982;0.711116;0.146;0;0;0;0;0
118.4983;7.22E-01;0.147;0;0;0;0;0
119.998;0.730963;0.1489;0;0;0;0;0
121.4983;0.740717;0.1429;0;0;0;0;0
122.998;0.75197;0.1425;0;0;0;0;0
124.4982;0.760537;0.1369;0;0;0;0;0
125.998;7.70E-01;0.141;0;0;0;0;0
127.4979;0.782421;0.1397;0;0;0;0;0
128.9981;0.790809;0.14;0;0;0;0;0
130.4978;0.800832;0.1419;0;0;0;0;0
131.9979;8.10E-01;0.1381;0;0;0;0;0
133.4978;8.22E-01;0.1416;0;0;0;0;0
134.9977;0.83102;0.1381;0;0;0;0;0
136.498;0.840296;0.1372;0;0;0;0;0
137.9977;8.50E-01;0.14;0;0;0;0;0
139.498;0.8609;0.1391;0;0;0;0;0
140.9977;8.71E-01;0.1369;0;0;0;0;0
142.4978;8.80E-01;0.1372;0;0;0;0;0
143.9977;0.890977;0.1362;0;0;0;0;0
145.4977;0.901292;0.1391;0;0;0;0;0
146.9979;9.10E-01;0.1346;0;0;0;0;0
148.4975;9.21E-01;0.1394;0;0;0;0;0
149.9975;0.930794;0.1391;0;0;0;0;0
151.4975;0.9411017;0.1359;0;0;0;0;0
152.9975;0.950933;0.1372;0;0;0;0;0
154.4975;0.961765;0.1324;0;0;0;0;0
155.9975;0.970559;0.1359;0;0;0;0;0
157.4975;0.98027;0.1346;0;0;0;0;0
158.9974;0.990783;0.1328;0;0;0;0;0
160.4975;1.00073;0.1346;0;0;0;0;0
161.9974;1.01092;0.1372;0;0;0;0;0
163.4972;1.02E+00;0.1346;0;0;0;0;0
164.9972;1.0307;0.1312;0;0;0;0;0
166.4975;1.04154;0.129;0;0;0;0;0
167.9973;1.05E+00;0.1299;0;0;0;0;0
169.4972;1.06E+00;0.134;0;0;0;0;0
170.9972;1.0709;0.1312;0;0;0;0;0
172.4971;1.08111;0.1318;0;0;0;0;0
173.9974;1.09E+00;0.1337;0;0;0;0;0
175.497;1.10E+00;0.1315;0;0;0;0;0
176.9972;1.11E+00;0.1261;0;0;0;0;0
178.497;1.12063;0.1293;0;0;0;0;0
179.9971;1.13105;0.1299;0;0;0;0;0
181.497;1.14001;0.1271;0;0;0;0;0
182.9969;1.15073;0.1286;0;0;0;0;0
184.4969;1.16097;0.1302;0;0;0;0;0
185.9971;1.17028;0.1258;0;0;0;0;0
187.497;1.18017;0.1267;0;0;0;0;0
188.9971;1.19026;0.1299;0;0;0;0;0
190.4968;1.20022;0.1217;0;0;0;0;0
191.9969;1.2103;0.1264;0;0;0;0;0
193.4967;1.22083;0.1207;0;0;0;0;0
194.9967;1.22985;0.1277;0;0;0;0;0
196.497;1.24151;0.1239;0;0;0;0;0
197.9968;1.25003;0.1249;0;0;0;0;0
199.4967;1.26061;0.1236;0;0;0;0;0
200.9969;1.26988;0.1223;0;0;0;0;0
202.4966;1.28038;0.1211;0;0;0;0;0
203.9969;1.29095;0.1242;0;0;0;0;0
205.4967;1.30092;0.1242;0;0;0;0;0
206.9968;1.31068;0.1223;0;0;0;0;0
208.4965;1.32E+00;0.1242;0;0;0;0;0
209.9966;1.33142;0.1207;0;0;0;0;0
211.4968;1.33994;0.1182;0;0;0;0;0
212.9964;1.35018;0.1226;0;0;0;0;0
214.4964;1.36E+00;0.1201;0;0;0;0;0
215.9964;1.37032;0.1147;0;0;0;0;0
217.4965;1.38103;0.116;0;0;0;0;0
218.9966;1.39043;0.1192;0;0;0;0;0
220.4964;1.40112;0.1211;0;0;0;0;0
221.9963;1.41074;0.1163;0;0;0;0;0
223.4962;1.41989;0.1157;0;0;0;0;0
224.9962;1.43029;0.1151;0;0;0;0;0
226.4963;1.44039;0.1078;0;0;0;0;0
227.9963;1.45025;0.109;0;0;0;0;0
229.4962;1.46053;0.109;0;0;0;0;0
230.9962;1.47E+00;0.1138;0;0;0;0;0
232.4961;1.48065;0.1109;0;0;0;0;0
233.9961;1.48986;0.1116;0;0;0;0;0
235.4962;1.49993;0.1084;0;0;0;0;0
236.9961;1.50928;0.1062;0;0;0;0;0
238.496;1.51905;0.1075;0;0;0;0;0
239.9959;1.53E+00;0.1078;0;0;0;0;0
241.4962;1.53965;0.1072;0;0;0;0;0
242.9959;1.5506;0.1046;0;0;0;0;0
244.4959;1.55897;0.1065;0;0;0;0;0
245.9959;1.57045;0.1011;0;0;0;0;0
247.4958;1.58078;0.0977;0;0;0;0;0
248.9961;1.58853;0.0999;0;0;0;0;0
250.4957;1.59975;0.1011;0;0;0;0;0
251.9961;1.60997;0.0961;0;0;0;0;0
253.496;1.61995;0.0961;0;0;0;0;0
254.9959;1.63009;0.0967;0;0;0;0;0
256.4957;1.63971;0.0964;0;0;0;0;0
257.9956;1.65014;0.091;0;0;0;0;0
259.4957;1.65994;0.0936;0;0;0;0;0
260.9958;1.66991;0.0901;0;0;0;0;0
262.4957;1.68061;0.0882;0;0;0;0;0
263.9956;1.68978;0.0901;0;0;0;0;0
265.4955;1.69994;0.0863;0;0;0;0;0
266.9956;1.71014;0.086;0;0;0;0;0
268.4954;1.72064;0.0857;0;0;0;0;0
269.9954;1.7298;0.0809;0;0;0;0;0
271.4955;1.74062;0.086;0;0;0;0;0
272.9954;1.75083;0.0797;0;0;0;0;0
274.4956;1.76128;0.0803;0;0;0;0;0
275.9954;1.77121;0.0765;0;0;0;0;0
277.4953;1.78023;0.079;0;0;0;0;0
278.9953;1.79018;0.0752;0;0;0;0;0
280.4954;1.79962;0.0778;0;0;0;0;0
281.9953;1.8106;0.073;0;0;0;0;0
283.4952;1.82145;0.0733;0;0;0;0;0
284.9952;1.83084;0.0718;0;0;0;0;0
286.4952;1.84125;0.0724;0;0;0;0;0
287.9951;1.8517;0.0676;0;0;0;0;0
289.4954;1.86124;0.0686;0;0;0;0;0
290.9952;1.87105;0.0654;0;0;0;0;0
292.495;1.88151;0.0692;0;0;0;0;0
293.9953;1.89286;0.0613;0;0;0;0;0
295.4951;1.90096;0.0654;0;0;0;0;0
296.9951;1.91091;0.0607;0;0;0;0;0
298.4952;1.92106;0.0597;0;0;0;0;0
299.9951;1.93095;0.0604;0;0;0;0;0
301.4952;1.9407;0.0591;0;0;0;0;0
302.9949;1.95119;0.0582;0;0;0;0;0
304.4949;1.96324;0.056;0;0;0;0;0
305.9951;1.97123;0.0512;0;0;0;0;0
307.495;1.98106;0.0534;0;0;0;0;0
308.9948;1.99257;0.0553;0;0;0;0;0
310.495;2.00095;0.0493;0;0;0;0;0
311.9948;2.01134;0.0493;0;0;0;0;0
313.4949;2.02157;0.0506;0;0;0;0;0
314.9947;2.03175;0.0481;0;0;0;0;0
316.4947;2.04249;0.0481;0;0;0;0;0
317.9946;2.05243;0.0455;0;0;0;0;0
319.4946;2.06211;0.0367;0;0;0;0;0
320.9948;2.07323;0.0433;0;0;0;0;0
322.4947;2.08203;0.037;0;0;0;0;0
323.9948;2.09382;0.0364;0;0;0;0;0
325.4945;2.10269;0.0392;0;0;0;0;0
326.9946;2.11315;0.0354;0;0;0;0;0
328.4947;2.12313;0.037;0;0;0;0;0
329.9944;2.13243;0.0332;0;0;0;0;0
331.4945;2.14379;0.031;0;0;0;0;0
332.9944;2.15361;0.0326;0;0;0;0;0
334.4944;2.16335;0.0266;0;0;0;0;0
335.9944;2.17442;0.0272;0;0;0;0;0
337.4943;2.18332;0.0234;0;0;0;0;0
338.9943;2.19332;0.0228;0;0;0;0;0
340.4942;2.20346;0.0215;0;0;0;0;0
341.9943;2.21429;0.0193;0;0;0;0;0
343.4942;2.22369;0.019;0;0;0;0;0
344.9942;2.23366;0.013;0;0;0;0;0
346.4944;2.24471;0.0123;0;0;0;0;0
347.9942;2.25403;0.0127;0;0;0;0;0
349.4941;2.2639;0.0067;0;0;0;0;0
350.9943;2.27468;0.0086;0;0;0;0;0
352.494;2.28433;0.0035;0;0;0;0;0
353.9943;2.29415;0.0025;0;0;0;0;0
354.994;2.30121;0.001;0;0;0;0;0

File: NT6_90_2.csv
Time[s],Displacement[mm],Force[kN],AxStrain_1,AxStrain_2,Thickness[mm],OuterWidth[mm],InnerWidth[mm]
0.6,0,-0.011456,0,0,1.0263,19.975,10.01
2.6,0.000676,0.0077095,0.00024397,0,0,0,0
4.6,0.000946,0.088137,0.00019498,0,0,0,0
6.6,0.001815,0.14914,-7e-06,0,0,0,0
8.6,0.001954,0.20514,0.00031695,0,0,0,0
10.6,0.003586,0.26014,0.00025297,0,0,0,0
12.6,0.005222,0.314,0.00012899,0,0,0,0
14.6,0.00466,0.36814,-1.3e-05,0,0,0,0
16.6,0.006233,0.41986,0.00021698,0,0,0,0
18.6,0.007444,0.47128,0.00030095,0,0,0,0
20.6,0.009326,0.52286,0.00029496,0,0,0,0
22.6,0.010645,0.57458,0.00020298,0,0,0,0
24.6,0.012104,0.62857,0.00014899,0,0,0,0
26.6,0.011197,0.68157,0.00023397,0,0,0,0
28.6,0.012943,0.73272,0.00031095,0,0,0,0
30.6,0.01452,0.78743,0.00065978,0,0,0,0
32.6,0.017298,0.84086,0.00064979,0,0,0,0
34.6,0.018117,0.89386,0.00051087,0,0,0,0
36.6,0.019531,0.94886,0.00076771,0,0,0,0
38.6,0.019423,1.0027,0.00068976,0,0,0,0
40.6,0.020523,1.0559,0.0010355,0,0,0,0
42.6,0.023413,1.1099,0.0010854,0,0,0,0
44.6,0.02522,1.1631,0.0011943,0,0,0,0
46.6,0.025944,1.2147,0.0007777,0,0,0,0
48.6,0.026956,1.2687,0.0011463,0,0,0,0
50.6,0.028519,1.3216,0.0010315,0,0,0,0
52.6,0.030292,1.3729,0.0013051,0,0,0,0
54.6,0.031487,1.4266,0.0011803,0,0,0,0
56.6,0.033189,1.4787,0.0011563,0,0,0,0
58.6,0.034265,1.5311,0.0011873,0,0,0,0
60.6,0.036059,1.5841,0.0012243,0,0,0,0
62.6,0.037047,1.6371,0.0015887,0,0,0,0
64.6,0.038576,1.6877,0.001424,0,0,0,0
66.6,0.039585,1.7407,0.0012582,0,0,0,0
68.6,0.042146,1.7926,0.0012882,0,0,0,0
70.6,0.043974,1.8439,0.001434,0,0,0,0
72.6,0.044231,1.8969,0.0017644,0,0,0,0
74.6,0.045463,1.9484,0.0016397,0,0,0,0
76.6,0.047253,1.9999,0.0014879,0,0,0,0
78.6,0.049628,2.0521,0.0013701,0,0,0,0
80.6,0.05105,2.1041,0.0015418,0,0,0,0
82.6,0.051808,2.1544,0.0018323,0,0,0,0
84.6,0.052708,2.2057,0.0020489,0,0,0,0
86.6,0.05444,2.2549,0.0017275,0,0,0,0
88.6,0.056447,2.3036,0.0017385,0,0,0,0
90.6,0.058413,2.354,0.0017215,0,0,0,0
92.6,0.059696,2.4037,0.0022205,0,0,0,0
94.6,0.060701,2.4539,0.0022006,0,0,0,0
96.6,0.062251,2.5039,0.0022006,0,0,0,0
98.6,0.063797,2.5546,0.0018463,0,0,0,0
100.6,0.066081,2.6027,0.0020788,0,0,0,0
102.6,0.068081,2.6527,0.0023732,0,0,0,0
104.6,0.07025,2.7019,0.0026156,0,0,0,0
106.6,0.071313,2.7506,0.002433,0,0,0,0
108.6,0.073573,2.7999,0.0023662,0,0,0,0
110.6,0.075231,2.8474,0.0027373,0,0,0,0
112.6,0.077898,2.8951,0.0028729,0,0,0,0
114.6,0.081143,2.9429,0.0032437,0,0,0,0
116.6,0.083417,2.9899,0.0035806,0,0,0,0
118.6,0.084666,3.035,0.0033444,0,0,0,0
120.6,0.087508,3.0797,0.0034122,0,0,0,0
122.6,0.090723,3.1226,0.0039183,0,0,0,0
124.6,0.094716,3.1649,0.0048273,0,0,0,0
126.6,0.098641,3.205,0.0056689,0,0,0,0
128.6,0.10253,3.245,0.0055347,0,0,0,0
130.6,0.10727,3.2829,0.0055347,0,0,0,0
132.6,0.1115,3.3203,0.0060387,0,0,0,0
134.6,0.11593,3.3566,0.0074512,0,0,0,0
136.6,0.12064,3.3911,0.0083907,0,0,0,0
138.6,0.12683,3.4249,0.0086257,0,0,0,0
140.6,0.13258,3.4576,0.0084918,0,0,0,0
142.6,0.13844,3.4899,0.0091629,0,0,0,0
144.6,0.14504,3.5204,0.010771,0,0,0,0
146.6,0.15204,3.551,0.012276,0,0,0,0
148.6,0.15843,3.5793,0.013078,0,0,0,0
150.6,0.16398,3.6076,0.012677,0,0,0,0
152.6,0.17092,3.6356,0.013312,0,0,0,0
154.6,0.17891,3.6624,0.01498,0,0,0,0
156.6,0.185,3.6879,0.016545,0,0,0,0
158.6,0.19343,3.7136,0.017178,0,0,0,0
160.6,0.20077,3.738,0.017178,0,0,0,0
162.6,0.20841,3.7619,0.01761,0,0,0,0
164.6,0.21627,3.7856,0.01874,0,0,0,0
166.6,0.22459,3.8083,0.020632,0,0,0,0
168.6,0.23244,3.8316,0.021492,0,0,0,0
170.6,0.24066,3.8533,0.021459,0,0,0,0
172.6,0.24939,3.8749,0.022321,0,0,0,0
174.6,0.25789,3.8966,0.02338,0,0,0,0
176.6,0.26554,3.9179,0.024536,0,0,0,0
178.6,0.27423,3.9386,0.025525,0,0,0,0
180.6,0.28276,3.9589,0.026383,0,0,0,0
182.6,0.29085,3.9793,0.02714,0,0,0,0
184.6,0.30022,3.9983,0.028128,0,0,0,0
186.6,0.30902,4.0176,0.028852,0,0,0,0
188.6,0.31755,4.037,0.029804,0,0,0,0
190.6,0.32763,4.0556,0.031052,0,0,0,0
192.6,0.33677,4.0739,0.031774,0,0,0,0
194.6,0.34479,4.0923,0.032527,0,0,0,0
196.6,0.35568,4.1106,0.033214,0,0,0,0
198.6,0.36475,4.128,0.034229,0,0,0,0
200.6,0.37308,4.1457,0.035406,0,0,0,0
202.6,0.38407,4.1623,0.036581,0,0,0,0
204.6,0.39348,4.1789,0.037233,0,0,0,0
206.6,0.40157,4.1956,0.038081,0,0,0,0
208.6,0.41145,4.2121,0.038797,0,0,0,0
210.6,0.42116,4.2286,0.039871,0,0,0,0
212.6,0.43047,4.2449,0.040911,0,0,0,0
214.6,0.44048,4.2603,0.041723,0,0,0,0
216.6,0.4504,4.2756,0.042793,0,0,0,0
218.6,0.4596,4.2916,0.043894,0,0,0,0
220.6,0.47016,4.307,0.045093,0,0,0,0
222.6,0.47997,4.3216,0.045481,0,0,0,0
224.6,0.48908,4.3363,0.046321,0,0,0,0
226.6,0.50018,4.3503,0.047548,0,0,0,0
228.6,0.50996,4.3649,0.048612,0,0,0,0
230.6,0.5194,4.3789,0.049708,0,0,0,0
232.6,0.53026,4.3933,0.050544,0,0,0,0
234.6,0.54048,4.4073,0.051123,0,0,0,0
236.6,0.5508,4.4197,0.052248,0,0,0,0
238.6,0.56102,4.4331,0.0535,0,0,0,0
240.6,0.57147,4.4457,0.054622,0,0,0,0
242.6,0.58125,4.4593,0.055455,0,0,0,0
244.6,0.59279,4.4724,0.056479,0,0,0,0
246.6,0.6024,4.4851,0.057247,0,0,0,0
248.6,0.61283,4.4974,0.058396,0,0,0,0
250.6,0.62332,4.5094,0.059512,0,0,0,0
252.6,0.6331,4.5217,0.060532,0,0,0,0
254.6,0.6443,4.5347,0.061678,0,0,0,0
256.6,0.65543,4.5467,0.062537,0,0,0,0
258.6,0.66524,4.5587,0.063522,0,0,0,0
260.6,0.67597,4.5697,0.06457,0,0,0,0
262.6,0.6871,4.5814,0.065616,0,0,0,0
264.6,0.69729,4.593,0.066851,0,0,0,0
266.6,0.70846,4.6044,0.0678,0,0,0,0
268.6,0.71884,4.6157,0.068749,0,0,0,0
270.6,0.72967,4.6264,0.06998,0,0,0,0
272.6,0.74121,4.637,0.070863,0,0,0,0
274.6,0.75197,4.647,0.072187,0,0,0,0
276.6,0.76294,4.6577,0.073446,0,0,0,0
278.6,0.77441,4.6683,0.074293,0,0,0,0
280.6,0.78483,4.679,0.075362,0,0,0,0
282.6,0.79603,4.6883,0.076554,0,0,0,0
284.6,0.8075,4.698,0.077493,0,0,0,0
286.6,0.81823,4.7079,0.078869,0,0,0,0
288.6,0.82997,4.7179,0.08012,0,0,0,0
290.6,0.84137,4.7283,0.081212,0,0,0,0
292.6,0.85197,4.7373,0.082242,0,0,0,0
294.6,0.86388,4.7466,0.083332,0,0,0,0
296.6,0.87508,4.755,0.084545,0,0,0,0
298.6,0.88591,4.7637,0.085851,0,0,0,0
300.6,0.89806,4.773,0.087186,0,0,0,0
302.6,0.90895,4.7817,0.088301,0,0,0,0
304.6,0.92029,4.7907,0.08954,0,0,0,0
306.6,0.93247,4.798,0.091025,0,0,0,0
308.6,0.9431,4.806,0.092353,0,0,0,0
310.6,0.95453,4.8144,0.093556,0,0,0,0
312.6,0.96553,4.8226,0.094849,0,0,0,0
314.6,0.97687,4.831,0.09611,0,0,0,0
316.6,0.98905,4.839,0.098046,0,0,0,0
318.6,1.0001,4.8463,0.099548,0,0,0,0
320.6,1.0112,4.8533,0.10086,0,0,0,0
322.6,1.0236,4.8606,0.10209,0,0,0,0
324.6,1.0347,4.868,0.10331,0,0,0,0
326.6,1.0461,4.8754,0.10529,0,0,0,0
328.6,1.0585,4.882,0.10693,0,0,0,0
330.6,1.0693,4.8886,0.10836,0,0,0,0
332.6,1.0817,4.896,0.10982,0,0,0,0
334.6,1.0935,4.9027,0.11106,0,0,0,0
336.6,1.1049,4.9084,0.11273,0,0,0,0
338.6,1.118,4.915,0.11469,0,0,0,0
340.6,1.1291,4.9213,0.11662,0,0,0,0
342.6,1.1411,4.9267,0.11809,0,0,0,0
344.6,1.1533,4.9327,0.11926,0,0,0,0
346.6,1.165,4.9387,0.12149,0,0,0,0
348.6,1.1776,4.9443,0.12319,0,0,0,0
350.6,1.1896,4.95,0.12502,0,0,0,0
352.6,1.201,4.955,0.12696,0,0,0,0
354.6,1.2133,4.9597,0.12874,0,0,0,0
356.6,1.2248,4.9657,0.13055,0,0,0,0
358.6,1.2372,4.97,0.13251,0,0,0,0
360.6,1.2497,4.9743,0.13456,0,0,0,0
362.6,1.2614,4.979,0.13663,0,0,0,0
364.6,1.2741,4.9837,0.13884,0,0,0,0
366.6,1.2864,4.9887,0.14063,0,0,0,0
368.6,1.2982,4.992,0.14272,0,0,0,0
370.6,1.3109,4.9957,0.14495,0,0,0,0
372.6,1.323,4.9997,0.14734,0,0,0,0
374.6,1.3356,5.003,0.14974,0,0,0,0
376.6,1.3488,5.006,0.15238,0,0,0,0
378.6,1.3608,5.0093,0.15494,0,0,0,0
380.6,1.374,5.012,0.15766,0,0,0,0
382.6,1.3865,5.015,0.15991,0,0,0,0
384.6,1.3988,5.0173,0.16313,0,0,0,0
386.6,1.4119,5.0193,0.16614,0,0,0,0
388.6,1.4241,5.0217,0.16892,0,0,0,0
390.6,1.437,5.0237,0.17158,0,0,0,0
392.6,1.4502,5.0243,0.17499,0,0,0,0
394.6,1.4623,5.026,0.17831,0,0,0,0
396.6,1.476,5.027,0.18173,0,0,0,0
398.6,1.4882,5.027,0.18553,0,0,0,0
400.6,1.5005,5.027,0.18896,0,0,0,0
402.6,1.5152,5.0263,0.19287,0,0,0,0
404.6,1.5279,5.0257,0.19688,0,0,0,0
406.6,1.5412,5.0243,0.2011,0,0,0,0
408.6,1.5544,5.0223,0.20518,0,0,0,0
410.6,1.5674,5.019,0.21036,0,0,0,0
412.6,1.5815,5.0153,0.21493,0,0,0,0
414.6,1.5945,5.011,0.21999,0,0,0,0
416.6,1.6089,5.005,0.22663,0,0,0,0
418.6,1.6227,4.9976,0.23308,0,0,0,0
420.6,1.6365,4.988,0.2396,0,0,0,0
422.6,1.6516,4.977,0.24727,0,0,0,0
424.6,1.6657,4.962,0.25443,0,0,0,0
426.6,1.6812,4.9429,0.26171,0,0,0,0
428.6,1.6966,4.9186,0.27043,0,0,0,0
429.1,1.7007,4.9101,0.27255,0,0,0,0