Folder: ethz/polyN_optimization/results_exp/DP780

Note: README.md
**MODELLING AND CALIBRATING A POLYN YIELD SURFACE FUNCTION**

---

In the context of my research assistant internship at ETH Zurich, I have to implement and find an operationnal strategy to calibrate a yield surface function based on the polyN model which is a homogenous polynomial of degree N.

To make the calibration operationnal please copy paste a folder "{material}_results" containing the csv files for a given material in the lab_data directory and then change the parameters you want in the polyN_optimization/param.txt. Then run polyN_optimization/optimize_polyN.py. The coefficients of the polyN function will be accessible in the polyN_coeff.npy file.

File: CH_00_1.csv
Time[s],Displacement[mm],Force[kN],AxStrain_1,AxStrain_2,Thickness[mm],OuterWidth[mm],Diameter[mm]
0,0,-0.034401,0,0,1.4976,19.967,5
3.5,4.60E-05,0.17152,-0.00042309,-0.00042309,0,0,0
7,0.000445,0.32884,-0.00015701,-0.00015701,0,0,0
10.5,0.000956,0.48148,0.00024997,0.00024997,0,0,0
14,0.000504,0.62563,-0.00039508,-0.00039508,0,0,0
17.5,0.001366,0.76653,-4.40E-05,-4.40E-05,0,0,0
21,0.001697,0.90647,1.00E-05,1.00E-05,0,0,0
24.5,0.001917,1.0393,-0.00011801,-0.00011801,0,0,0
28,0.002083,1.1655,-1.00E-05,-1.00E-05,0,0,0
31.5,0.002963,1.2872,0.00040892,0.00040892,0,0,0
35,0.003325,1.4066,0.00028096,0.00028096,0,0,0
38.5,0.003195,1.5253,0.00020298,0.00020298,0,0,0
42,0.004207,1.6392,0.00030395,0.00030395,0,0,0
45.5,0.0043,1.7525,0.00024997,0.00024997,0,0,0
49,0.004342,1.8608,0.00013899,0.00013899,0,0,0
52.5,0.005379,1.972,0.00051087,0.00051087,0,0,0
56,0.005375,2.0794,0.00022298,0.00022298,0,0,0
59.5,0.005247,2.1847,0.00034894,0.00034894,0,0,0
63,0.006538,2.2911,0.00049088,0.00049088,0,0,0
66.5,0.007018,2.3966,0.00037593,0.00037593,0,0,0
70,0.006833,2.4998,0.00035594,0.00035594,0,0,0
73.5,0.007939,2.6018,0.00072074,0.00072074,0,0,0
77,0.008156,2.7034,0.00050187,0.00050187,0,0,0
80.5,0.008178,2.8062,0.00051187,0.00051187,0,0,0
84,0.009646,2.9074,0.00094755,0.00094755,0,0,0
87.5,0.009666,3.0064,0.00068776,0.00068776,0,0,0
91,0.009237,3.1039,0.00029996,0.00029996,0,0,0
94.5,0.010481,3.2027,0.00084065,0.00084065,0,0,0
98,0.01131,3.3007,0.00088061,0.00088061,0,0,0
101.5,0.010783,3.4006,0.00087362,0.00087362,0,0,0
105,0.01197,3.5002,0.00059382,0.00059382,0,0,0
108.5,0.012832,3.595,0.0011034,0.0011034,0,0,0
112,0.012137,3.6887,0.00091458,0.00091458,0,0,0
115.5,0.013092,3.7857,0.00047589,0.00047589,0,0,0
119,0.014214,3.8815,0.0010834,0.0010834,0,0,0
122.5,0.013548,3.9756,0.0012522,0.0012522,0,0,0
126,0.013931,4.0726,0.00088161,0.00088161,0,0,0
129.5,0.015902,4.1621,0.0011184,0.0011184,0,0,0
133,0.015236,4.2563,0.0015917,0.0015917,0,0,0
136.5,0.015347,4.347,0.0010175,0.0010175,0,0,0
140,0.017013,4.4384,0.0011883,0.0011883,0,0,0
143.5,0.016685,4.5352,0.0015937,0.0015937,0,0,0
147,0.01663,4.6253,0.0010205,0.0010205,0,0,0
150.5,0.018295,4.7209,0.0012233,0.0012233,0,0,0
154,0.018643,4.8108,0.0016626,0.0016626,0,0,0
157.5,0.018316,4.9029,0.0015618,0.0015618,0,0,0
161,0.019476,4.9944,0.0012922,0.0012922,0,0,0
164.5,0.020673,5.0864,0.0015618,0.0015618,0,0,0
168,0.019976,5.1781,0.0018992,0.0018992,0,0,0
171.5,0.020461,5.2719,0.0014609,0.0014609,0,0,0
175,0.022131,5.3647,0.0016976,0.0016976,0,0,0
178.5,0.021333,5.4584,0.0020679,0.0020679,0,0,0
182,0.021582,5.5558,0.0018323,0.0018323,0,0,0
185.5,0.023352,5.6479,0.0016976,0.0016976,0,0,0
189,0.023667,5.7397,0.0020689,0.0020689,0,0,0
192.5,0.023138,5.8391,0.0021686,0.0021686,0,0,0
196,0.024603,5.9285,0.0019002,0.0019002,0,0,0
199.5,0.025698,6.0236,0.0022375,0.0022375,0,0,0
203,0.025137,6.1193,0.0027781,0.0027781,0,0,0
206.5,0.025863,6.216,0.0023742,0.0023742,0,0,0
210,0.027228,6.3086,0.0024759,0.0024759,0,0,0
213.5,0.027311,6.4062,0.002815,0.002815,0,0,0
217,0.027665,6.5019,0.002815,0.002815,0,0,0
220.5,0.028927,6.5985,0.0023113,0.0023113,0,0,0
224,0.02938,6.6975,0.0028519,0.0028519,0,0,0
227.5,0.029697,6.7975,0.0029197,0.0029197,0,0,0
231,0.030249,6.8941,0.0025148,0.0025148,0,0,0
234.5,0.031209,6.9901,0.0029197,0.0029197,0,0,0
238,0.032303,7.0921,0.0031899,0.0031899,0,0,0
241.5,0.032551,7.1905,0.003154,0.003154,0,0,0
245,0.03408,7.2896,0.0030194,0.0030194,0,0,0
248.5,0.034505,7.3908,0.003728,0.003728,0,0,0
252,0.035159,7.4926,0.003728,0.003728,0,0,0
255.5,0.035852,7.5962,0.0034909,0.0034909,0,0,0
259,0.037151,7.6987,0.0040289,0.0040289,0,0,0
262.5,0.037975,7.8038,0.0042987,0.0042987,0,0,0
266,0.038156,7.9044,0.0040976,0.0040976,0,0,0
269.5,0.039724,8.0066,0.004469,0.004469,0,0,0
273,0.040817,8.106,0.0051746,0.0051746,0,0,0
276.5,0.041066,8.2115,0.0042659,0.0042659,0,0,0
280,0.042632,8.3124,0.0046034,0.0046034,0,0,0
283.5,0.044501,8.4172,0.0056122,0.0056122,0,0,0
287,0.044344,8.5209,0.0048044,0.0048044,0,0,0
290.5,0.046179,8.6232,0.0054123,0.0054123,0,0,0
294,0.048252,8.7305,0.0064521,0.0064521,0,0,0
297.5,0.047958,8.8341,0.0057803,0.0057803,0,0,0
301,0.049963,8.9387,0.0057832,0.0057832,0,0,0
304.5,0.052031,9.0443,0.0070243,0.0070243,0,0,0
308,0.052042,9.1475,0.0065892,0.0065892,0,0,0
311.5,0.053673,9.2514,0.0064551,0.0064551,0,0,0
315,0.056286,9.3534,0.0076636,0.0076636,0,0,0
318.5,0.057073,9.4591,0.0077975,0.0077975,0,0,0
322,0.058336,9.561,0.0074968,0.0074968,0,0,0
325.5,0.060977,9.6677,0.0085027,0.0085027,0,0,0
329,0.062442,9.7736,0.0089726,0.0089726,0,0,0
332.5,0.064309,9.8795,0.0084373,0.0084373,0,0,0
336,0.066177,9.9816,0.009675,0.009675,0,0,0
339.5,0.068247,10.087,0.010343,0.010343,0,0,0
343,0.070215,10.186,0.0098117,0.0098117,0,0,0
346.5,0.07205,10.29,0.010681,0.010681,0,0,0
350,0.074458,10.393,0.011715,0.011715,0,0,0
353.5,0.077775,10.497,0.011016,0.011016,0,0,0
357,0.078902,10.596,0.011551,0.011551,0,0,0
360.5,0.081949,10.698,0.013188,0.013188,0,0,0
364,0.085166,10.798,0.012589,0.012589,0,0,0
367.5,0.086762,10.896,0.013225,0.013225,0,0,0
371,0.089979,10.998,0.014558,0.014558,0,0,0
374.5,0.093701,11.101,0.014127,0.014127,0,0,0
378,0.095464,11.198,0.015194,0.015194,0,0,0
381.5,0.099489,11.298,0.016488,0.016488,0,0,0
385,0.10281,11.399,0.016323,0.016323,0,0,0
388.5,0.10643,11.492,0.016788,0.016788,0,0,0
392,0.11018,11.586,0.018114,0.018114,0,0,0
395.5,0.11258,11.683,0.018446,0.018446,0,0,0
399,0.11762,11.778,0.019243,0.019243,0,0,0
402.5,0.12117,11.871,0.020566,0.020566,0,0,0
406,0.12408,11.963,0.02093,0.02093,0,0,0
409.5,0.12912,12.058,0.021591,0.021591,0,0,0
413,0.13301,12.151,0.022912,0.022912,0,0,0
416.5,0.13754,12.24,0.023277,0.023277,0,0,0
420,0.14153,12.329,0.024168,0.024168,0,0,0
423.5,0.14609,12.417,0.025322,0.025322,0,0,0
427,0.1519,12.507,0.026178,0.026178,0,0,0
430.5,0.15532,12.6,0.026737,0.026737,0,0,0
434,0.16073,12.687,0.028087,0.028087,0,0,0
437.5,0.16607,12.774,0.029138,0.029138,0,0,0
441,0.17114,12.861,0.030025,0.030025,0,0,0
444.5,0.17658,12.945,0.031401,0.031401,0,0,0
448,0.18104,13.035,0.032579,0.032579,0,0,0
451.5,0.18838,13.117,0.033333,0.033333,0,0,0
455,0.193,13.201,0.034772,0.034772,0,0,0
458.5,0.19898,13.285,0.035914,0.035914,0,0,0
462,0.20476,13.363,0.036894,0.036894,0,0,0
465.5,0.21091,13.443,0.03813,0.03813,0,0,0
469,0.2178,13.526,0.039397,0.039397,0,0,0
472.5,0.2227,13.607,0.040761,0.040761,0,0,0
476,0.22993,13.681,0.041896,0.041896,0,0,0
479.5,0.23604,13.76,0.043094,0.043094,0,0,0
483,0.24371,13.835,0.044485,0.044485,0,0,0
486.5,0.24925,13.908,0.0461,0.0461,0,0,0
490,0.25567,13.985,0.046937,0.046937,0,0,0
493.5,0.26341,14.058,0.048805,0.048805,0,0,0
497,0.27047,14.131,0.049995,0.049995,0,0,0
500.5,0.27763,14.203,0.050957,0.050957,0,0,0
504,0.28374,14.271,0.052724,0.052724,0,0,0
507.5,0.29202,14.341,0.05391,0.05391,0,0,0
511,0.29925,14.411,0.055062,0.055062,0,0,0
514.5,0.30688,14.479,0.05653,0.05653,0,0,0
518,0.31354,14.548,0.058062,0.058062,0,0,0
521.5,0.32165,14.616,0.059656,0.059656,0,0,0
525,0.33039,14.679,0.061183,0.061183,0,0,0
528.5,0.33792,14.747,0.062867,0.062867,0,0,0
532,0.34613,14.807,0.064514,0.064514,0,0,0
535.5,0.35333,14.868,0.066163,0.066163,0,0,0
539,0.36265,14.934,0.067806,0.067806,0,0,0
542.5,0.37025,14.995,0.069792,0.069792,0,0,0
546,0.37924,15.056,0.071431,0.071431,0,0,0
549.5,0.38626,15.114,0.073191,0.073191,0,0,0
553,0.39559,15.183,0.075106,0.075106,0,0,0
556.5,0.40447,15.235,0.077453,0.077453,0,0,0
560,0.41403,15.295,0.078704,0.078704,0,0,0
563.5,0.42254,15.35,0.080824,0.080824,0,0,0
567,0.43126,15.407,0.083502,0.083502,0,0,0
570.5,0.44058,15.465,0.084868,0.084868,0,0,0
574,0.45048,15.521,0.086976,0.086976,0,0,0
577.5,0.45993,15.575,0.089422,0.089422,0,0,0
581,0.46848,15.628,0.091182,0.091182,0,0,0
584.5,0.47821,15.683,0.09337,0.09337,0,0,0
588,0.48773,15.733,0.095463,0.095463,0,0,0
591.5,0.49841,15.785,0.097487,0.097487,0,0,0
595,0.50773,15.838,0.099998,0.099998,0,0,0
598.5,0.51783,15.887,0.10214,0.10214,0,0,0
602,0.52688,15.939,0.10412,0.10412,0,0,0
605.5,0.53783,15.989,0.10619,0.10619,0,0,0
609,0.54793,16.036,0.10858,0.10858,0,0,0
612.5,0.55931,16.085,0.11104,0.11104,0,0,0
616,0.56864,16.129,0.11291,0.11291,0,0,0
619.5,0.57972,16.182,0.11574,0.11574,0,0,0
623,0.58925,16.225,0.1183,0.1183,0,0,0
626.5,0.60151,16.273,0.12064,0.12064,0,0,0
630,0.61195,16.315,0.12399,0.12399,0,0,0
633.5,0.62357,16.362,0.12637,0.12637,0,0,0
637,0.63374,16.403,0.12908,0.12908,0,0,0
640.5,0.64523,16.448,0.13196,0.13196,0,0,0
644,0.65631,16.492,0.13486,0.13486,0,0,0
647.5,0.66885,16.534,0.13786,0.13786,0,0,0
651,0.68003,16.574,0.1403,0.1403,0,0,0
654.5,0.69226,16.612,0.14335,0.14335,0,0,0
658,0.70294,16.653,0.1464,0.1464,0,0,0
661.5,0.7149,16.694,0.14931,0.14931,0,0,0
665,0.72693,16.733,0.15251,0.15251,0,0,0
668.5,0.73953,16.772,0.15567,0.15567,0,0,0
672,0.75166,16.81,0.15879,0.15879,0,0,0
675.5,0.76416,16.845,0.16213,0.16213,0,0,0
679,0.77653,16.882,0.16603,0.16603,0,0,0
682.5,0.78856,16.921,0.1692,0.1692,0,0,0
686,0.80184,16.956,0.17319,0.17319,0,0,0
689.5,0.81454,16.989,0.17657,0.17657,0,0,0
693,0.82874,17.025,0.18025,0.18025,0,0,0
696.5,0.84124,17.06,0.18436,0.18436,0,0,0
700,0.85533,17.09,0.18773,0.18773,0,0,0
703.5,0.86743,17.126,0.19234,0.19234,0,0,0
707,0.88182,17.154,0.19621,0.19621,0,0,0
710.5,0.89511,17.188,0.19998,0.19998,0,0,0
714,0.9094,17.221,0.20382,0.20382,0,0,0
717.5,0.9243,17.248,0.20888,0.20888,0,0,0
721,0.93805,17.276,0.21293,0.21293,0,0,0
724.5,0.95272,17.302,0.21761,0.21761,0,0,0
728,0.96627,17.329,0.2219,0.2219,0,0,0
731.5,0.9812,17.356,0.22628,0.22628,0,0,0
735,0.99543,17.386,0.23112,0.23112,0,0,0
738.5,1.0109,17.41,0.23612,0.23612,0,0,0
742,1.0263,17.433,0.24059,0.24059,0,0,0
745.5,1.0423,17.459,0.24542,0.24542,0,0,0
749,1.0588,17.48,0.25085,0.25085,0,0,0
752.5,1.0732,17.501,0.25625,0.25625,0,0,0
756,1.0907,17.522,0.26106,0.26106,0,0,0
759.5,1.1067,17.538,0.26635,0.26635,0,0,0
763,1.1244,17.552,0.27235,0.27235,0,0,0
766.5,1.1415,17.559,0.27991,0.27991,0,0,0
770,1.1618,17.542,0.28732,0.28732,0,0,0
771.5,1.1731,17.506,0.2923,0.2923,0,0,0

File: NT6_90_1.csv
Time[s],Displacement[mm],Force[kN],AxStrain_1,AxStrain_2,Thickness[mm],OuterWidth[mm],InnerWidth[mm]
0,0,-0.040258,0,0,1.4962,19.992,10.049
2.5,0.000374,0.12789,5.3999e-05,0,0,0,0
5,0.000786,0.24386,1.7e-05,0,0,0,0
7.5,0.001114,0.35267,1.3e-05,0,0,0,0
10,0.001487,0.46018,9.9995e-05,0,0,0,0
12.5,0.001214,0.55875,0.0004499,0,0,0,0
15,0.001585,0.6623,-5.7002e-05,0,0,0,0
17.5,0.00194,0.76395,3e-06,0,0,0,0
20,0.002279,0.86256,9.0996e-05,0,0,0,0
22.5,0.002809,0.96021,-0.00013201,0,0,0,0
25,0.003084,1.0596,-6.1002e-05,0,0,0,0
27.5,0.003195,1.1466,3e-06,0,0,0,0
30,0.003547,1.2352,0.00012799,0,0,0,0
32.5,0.004048,1.3236,1e-05,0,0,0,0
35,0.004512,1.4098,0.00012199,0,0,0,0
37.5,0.004371,1.4936,0.00022697,0,0,0,0
40,0.004963,1.5755,9.0996e-05,0,0,0,0
42.5,0.00514,1.657,0.00013899,0,0,0,0
45,0.006341,1.7364,0.00036193,0,0,0,0
47.5,0.006238,1.8153,0.00018998,0,0,0,0
50,0.006449,1.8957,0.0004429,0,0,0,0
52.5,0.007063,1.9731,0.00039292,0,0,0,0
55,0.008119,2.049,0.00034194,0,0,0,0
57.5,0.00782,2.123,0.00023097,0,0,0,0
60,0.007657,2.1991,0.00036193,0,0,0,0
62.5,0.008444,2.2713,0.00037593,0,0,0,0
65,0.009444,2.35,0.00010199,0,0,0,0
67.5,0.009788,2.4235,0.00051787,0,0,0,0
70,0.009736,2.4963,0.00031195,0,0,0,0
72.5,0.009953,2.5686,0.00015599,0,0,0,0
75,0.011231,2.6379,0.00038293,0,0,0,0
77.5,0.011893,2.7084,0.00023797,0,0,0,0
80,0.011457,2.7756,0.00030895,0,0,0,0
82.5,0.011076,2.8475,0.00032295,0,0,0,0
85,0.012242,2.9173,0.00056184,0,0,0,0
87.5,0.013804,2.9874,0.00049188,0,0,0,0
90,0.013332,3.0574,0.00047489,0,0,0,0
92.5,0.012751,3.1272,0.00034694,0,0,0,0
95,0.013591,3.1951,0.00037393,0,0,0,0
97.5,0.014933,3.2641,0.00047789,0,0,0,0
100,0.015482,3.3313,0.0006338,0,0,0,0
102.5,0.015223,3.4008,0.00060082,0,0,0,0
105,0.015093,3.4711,0.00046589,0,0,0,0
107.5,0.016152,3.537,0.00069476,0,0,0,0
110,0.017624,3.6068,0.0007767,0,0,0,0
112.5,0.017555,3.6683,0.00057683,0,0,0,0
115,0.016871,3.7393,0.00064479,0,0,0,0
117.5,0.017586,3.8037,0.00074572,0,0,0,0
120,0.01918,3.8694,0.00047689,0,0,0,0
122.5,0.01966,3.9371,0.00081467,0,0,0,0
125,0.019125,3.9992,0.00074772,0,0,0,0
127.5,0.018997,4.0662,0.00071375,0,0,0,0
130,0.019916,4.1276,0.00064579,0,0,0,0
132.5,0.021613,4.1946,0.00098452,0,0,0,0
135,0.022027,4.2576,0.00081567,0,0,0,0
137.5,0.021153,4.3257,0.00057983,0,0,0,0
140,0.021434,4.3898,0.00078269,0,0,0,0
142.5,0.022318,4.4519,0.00088361,0,0,0,0
145,0.023985,4.517,0.00098551,0,0,0,0
147.5,0.023723,4.5806,0.0010534,0,0,0,0
150,0.023359,4.6425,0.00088461,0,0,0,0
152.5,0.024279,4.7048,0.00074972,0,0,0,0
155,0.025741,4.7719,0.00081767,0,0,0,0
157.5,0.026189,4.8339,0.0010554,0,0,0,0
160,0.026062,4.8983,0.00081866,0,0,0,0
162.5,0.026307,4.9605,0.00088561,0,0,0,0
165,0.027059,5.0242,0.00075172,0,0,0,0
167.5,0.028148,5.0833,0.0011573,0,0,0,0
170,0.028698,5.1476,0.00098851,0,0,0,0
172.5,0.028775,5.2116,0.0010574,0,0,0,0
175,0.029088,5.2758,0.00085364,0,0,0,0
177.5,0.030042,5.3406,0.0010914,0,0,0,0
180,0.030795,5.4057,0.0012602,0,0,0,0
182.5,0.03148,5.4714,0.0010584,0,0,0,0
185,0.031895,5.5354,0.0011593,0,0,0,0
187.5,0.032478,5.5995,0.0011274,0,0,0,0
190,0.0333,5.6603,0.00092557,0,0,0,0
192.5,0.033886,5.7234,0.0013631,0,0,0,0
195,0.034741,5.7879,0.0012952,0,0,0,0
197.5,0.035291,5.8505,0.0010594,0,0,0,0
200,0.036419,5.9131,0.0013301,0,0,0,0
202.5,0.036768,5.9762,0.0014979,0,0,0,0
205,0.037624,6.0391,0.0015987,0,0,0,0
207.5,0.038783,6.1049,0.0013631,0,0,0,0
210,0.039841,6.1667,0.0015648,0,0,0,0
212.5,0.039985,6.2321,0.0015997,0,0,0,0
215,0.040672,6.2941,0.0019711,0,0,0,0
217.5,0.041763,6.3615,0.0018702,0,0,0,0
220,0.043157,6.425,0.0017355,0,0,0,0
222.5,0.044249,6.4915,0.0016706,0,0,0,0
225,0.044495,6.5563,0.0017025,0,0,0,0
227.5,0.04528,6.6203,0.001976,0,0,0,0
230,0.046678,6.6836,0.0019421,0,0,0,0
232.5,0.048989,6.7518,0.0018074,0,0,0,0
235,0.049136,6.817,0.00201,0,0,0,0
237.5,0.049385,6.8823,0.0022455,0,0,0,0
240,0.051116,6.9469,0.0023123,0,0,0,0
242.5,0.053492,7.0143,0.0021427,0,0,0,0
245,0.054513,7.0775,0.0023443,0,0,0,0
247.5,0.055064,7.1431,0.0023443,0,0,0,0
250,0.055847,7.2108,0.0028848,0,0,0,0
252.5,0.057949,7.2783,0.0026834,0,0,0,0
255,0.06002,7.3444,0.0025478,0,0,0,0
257.5,0.061311,7.4101,0.0027861,0,0,0,0
260,0.061998,7.4748,0.0031241,0,0,0,0
262.5,0.063899,7.5408,0.0032278,0,0,0,0
265,0.065837,7.6045,0.0029586,0,0,0,0
267.5,0.067469,7.6726,0.0029915,0,0,0,0
270,0.068729,7.737,0.0033942,0,0,0,0
272.5,0.071174,7.803,0.0036982,0,0,0,0
275,0.072635,7.8669,0.0035278,0,0,0,0
277.5,0.074536,7.9332,0.0035268,0,0,0,0
280,0.0762,7.9979,0.0034939,0,0,0,0
282.5,0.079047,8.0615,0.004233,0,0,0,0
285,0.081555,8.1261,0.0045377,0,0,0,0
287.5,0.082644,8.1908,0.0043027,0,0,0,0
290,0.084375,8.2543,0.0042699,0,0,0,0
292.5,0.087694,8.3185,0.0049796,0,0,0,0
295,0.090544,8.3811,0.0052482,0,0,0,0
297.5,0.092615,8.4484,0.0052174,0,0,0,0
300,0.094179,8.5069,0.0050472,0,0,0,0
302.5,0.097398,8.569,0.0053168,0,0,0,0
305,0.10038,8.635,0.0057534,0,0,0,0
307.5,0.10289,8.6969,0.0059542,0,0,0,0
310,0.10617,8.7585,0.0059194,0,0,0,0
312.5,0.10959,8.8182,0.005817,0,0,0,0
315,0.11187,8.8795,0.006622,0,0,0,0
317.5,0.11457,8.9412,0.0073956,0,0,0,0
320,0.1187,9,0.0071265,0,0,0,0
322.5,0.12253,9.0565,0.0067571,0,0,0,0
325,0.12591,9.1166,0.0073618,0,0,0,0
327.5,0.12869,9.1758,0.0082667,0,0,0,0
330,0.13258,9.2368,0.008468,0,0,0,0
332.5,0.13661,9.2948,0.0080664,0,0,0,0
335,0.14046,9.3515,0.0085702,0,0,0,0
337.5,0.14449,9.4082,0.0093759,0,0,0,0
340,0.14912,9.4653,0.010314,0,0,0,0
342.5,0.15234,9.5205,0.009779,0,0,0,0
345,0.15607,9.58,0.00978,0,0,0,0
347.5,0.16087,9.6342,0.010517,0,0,0,0
350,0.16561,9.6898,0.01142,0,0,0,0
352.5,0.1696,9.7444,0.011587,0,0,0,0
355,0.1745,9.7967,0.011221,0,0,0,0
357.5,0.17948,9.8545,0.011656,0,0,0,0
360,0.18321,9.9103,0.012721,0,0,0,0
362.5,0.18767,9.9627,0.013486,0,0,0,0
365,0.19372,10.015,0.012988,0,0,0,0
367.5,0.19883,10.068,0.013189,0,0,0,0
370,0.2035,10.122,0.014286,0,0,0,0
372.5,0.20956,10.176,0.015183,0,0,0,0
375,0.21453,10.226,0.015317,0,0,0,0
377.5,0.21923,10.278,0.015118,0,0,0,0
380,0.22522,10.329,0.015916,0,0,0,0
382.5,0.23127,10.379,0.017045,0,0,0,0
385,0.23665,10.428,0.017277,0,0,0,0
387.5,0.2424,10.478,0.017277,0,0,0,0
390,0.24855,10.527,0.017641,0,0,0,0
392.5,0.25403,10.575,0.018836,0,0,0,0
395,0.25958,10.622,0.0194,0,0,0,0
397.5,0.26637,10.667,0.019301,0,0,0,0
400,0.27242,10.719,0.0197,0,0,0,0
402.5,0.27936,10.764,0.020659,0,0,0,0
405,0.28686,10.809,0.021254,0,0,0,0
407.5,0.29268,10.858,0.021583,0,0,0,0
410,0.29877,10.902,0.021884,0,0,0,0
412.5,0.30556,10.948,0.022676,0,0,0,0
415,0.31243,10.991,0.023502,0,0,0,0
417.5,0.31898,11.036,0.024094,0,0,0,0
420,0.3272,11.079,0.024393,0,0,0,0
422.5,0.33403,11.122,0.025186,0,0,0,0
425,0.3414,11.166,0.025908,0,0,0,0
427.5,0.34904,11.211,0.026666,0,0,0,0
430,0.35566,11.253,0.027291,0,0,0,0
432.5,0.36283,11.294,0.027951,0,0,0,0
435,0.37101,11.338,0.028739,0,0,0,0
437.5,0.37842,11.378,0.029233,0,0,0,0
440,0.38667,11.418,0.03002,0,0,0,0
442.5,0.39546,11.457,0.030708,0,0,0,0
445,0.40293,11.496,0.031494,0,0,0,0
447.5,0.41117,11.536,0.032312,0,0,0,0
450,0.41963,11.575,0.033131,0,0,0,0
452.5,0.42659,11.612,0.033981,0,0,0,0
455,0.43578,11.647,0.034861,0,0,0,0
457.5,0.4443,11.685,0.035742,0,0,0,0
460,0.45268,11.721,0.036362,0,0,0,0
462.5,0.46215,11.757,0.037241,0,0,0,0
465,0.4705,11.793,0.038085,0,0,0,0
467.5,0.47966,11.828,0.038965,0,0,0,0
470,0.48889,11.86,0.040133,0,0,0,0
472.5,0.49707,11.896,0.040782,0,0,0,0
475,0.50609,11.927,0.041689,0,0,0,0
477.5,0.51532,11.959,0.042889,0,0,0,0
480,0.52414,11.992,0.044442,0,0,0,0
482.5,0.53462,12.026,0.04525,0,0,0,0
485,0.54385,12.058,0.045992,0,0,0,0
487.5,0.55382,12.086,0.046991,0,0,0,0
490,0.56423,12.115,0.04857,0,0,0,0
492.5,0.57339,12.147,0.049695,0,0,0,0
495,0.584,12.178,0.050435,0,0,0,0
497.5,0.59377,12.208,0.051656,0,0,0,0
500,0.60357,12.233,0.053162,0,0,0,0
502.5,0.61425,12.263,0.054443,0,0,0,0
505,0.62392,12.291,0.055499,0,0,0,0
507.5,0.63494,12.316,0.056489,0,0,0,0
510,0.64555,12.34,0.058277,0,0,0,0
512.5,0.65617,12.369,0.059678,0,0,0,0
515,0.66759,12.393,0.061015,0,0,0,0
517.5,0.67827,12.42,0.062222,0,0,0,0
520,0.68983,12.443,0.063872,0,0,0,0
522.5,0.70139,12.464,0.065835,0,0,0,0
525,0.7121,12.488,0.06707,0,0,0,0
527.5,0.72389,12.508,0.068489,0,0,0,0
530,0.73461,12.533,0.070035,0,0,0,0
532.5,0.74654,12.552,0.072144,0,0,0,0
535,0.75739,12.575,0.073652,0,0,0,0
537.5,0.76925,12.593,0.07519,0,0,0,0
540,0.78159,12.612,0.07713,0,0,0,0
542.5,0.79345,12.634,0.079039,0,0,0,0
545,0.80599,12.649,0.080661,0,0,0,0
547.5,0.81789,12.666,0.082591,0,0,0,0
550,0.83076,12.684,0.084797,0,0,0,0
552.5,0.84394,12.697,0.086907,0,0,0,0
555,0.85642,12.713,0.088919,0,0,0,0
557.5,0.86959,12.728,0.091204,0,0,0,0
560,0.88196,12.742,0.093485,0,0,0,0
562.5,0.89588,12.758,0.09576,0,0,0,0
565,0.90866,12.764,0.098337,0,0,0,0
567.5,0.92225,12.778,0.10063,0,0,0,0
570,0.93556,12.79,0.10347,0,0,0,0
572.5,0.94864,12.799,0.10575,0,0,0,0
575,0.96266,12.81,0.10846,0,0,0,0
577.5,0.97571,12.814,0.11106,0,0,0,0
580,0.99038,12.822,0.11402,0,0,0,0
582.5,1.0037,12.826,0.11721,0,0,0,0
585,1.0185,12.834,0.12018,0,0,0,0
587.5,1.0322,12.839,0.12422,0,0,0,0
590,1.0476,12.843,0.12786,0,0,0,0
592.5,1.0624,12.842,0.13151,0,0,0,0
595,1.0772,12.842,0.1355,0,0,0,0
597.5,1.0924,12.842,0.13962,0,0,0,0
600,1.1078,12.84,0.14335,0,0,0,0
602.5,1.1234,12.836,0.148,0,0,0,0
605,1.1388,12.83,0.15274,0,0,0,0
607.5,1.1553,12.825,0.15708,0,0,0,0
610,1.1712,12.818,0.16195,0,0,0,0
612.5,1.1874,12.806,0.16739,0,0,0,0
615,1.2033,12.793,0.1723,0,0,0,0
617.5,1.2206,12.777,0.17775,0,0,0,0
620,1.2367,12.763,0.18376,0,0,0,0
622.5,1.2541,12.744,0.18965,0,0,0,0
625,1.2708,12.722,0.19598,0,0,0,0
627.5,1.2893,12.7,0.20262,0,0,0,0
630,1.3063,12.676,0.20942,0,0,0,0
632.5,1.3249,12.645,0.21655,0,0,0,0
635,1.3427,12.61,0.22398,0,0,0,0
637.5,1.3617,12.575,0.23177,0,0,0,0
640,1.3803,12.538,0.23978,0,0,0,0
642.5,1.3995,12.492,0.24781,0,0,0,0
645,1.4187,12.446,0.25641,0,0,0,0
647.5,1.4382,12.394,0.26495,0,0,0,0
650,1.4581,12.339,0.27418,0,0,0,0
652.5,1.4781,12.277,0.28377,0,0,0,0
655,1.499,12.203,0.29384,0,0,0,0
657,1.5159,12.127,0.30271,0,0,0,0