Folder: ethz/lab_data/AA6014-T4_results/DATA (part 6)

File: NT20_45_2.csv
Time[s],Displacement[mm],Force[kN],AxStrain_1,AxStrain_2,Thickness[mm],OuterWidth[mm],InnerWidth[mm]
0.59,0,-0.0058493,0,0,1.1178,20,9.9524
3.09,0.001816,0.086282,9.4995e-05,0,0,0,0
5.59,0.003234,0.17071,0.00026596,0,0,0,0
8.09,0.004167,0.235,0.00023497,0,0,0,0
10.59,0.005999,0.30528,0.00024497,0,0,0,0
13.09,0.007694,0.37814,0.00039492,0,0,0,0
15.59,0.009017,0.45386,0.00035594,0,0,0,0
18.09,0.010357,0.528,0.00058083,0,0,0,0
20.59,0.011888,0.60685,0.00057084,0,0,0,0
23.09,0.014517,0.68257,0.0006348,0,0,0,0
25.59,0.016655,0.763,0.00071774,0,0,0,0
28.09,0.018109,0.84029,0.00079169,0,0,0,0
30.59,0.019855,0.91886,0.00069176,0,0,0,0
33.09,0.022362,0.99486,0.0010574,0,0,0,0
35.59,0.025011,1.0709,0.0010734,0,0,0,0
38.09,0.026676,1.145,0.0012213,0,0,0,0
40.59,0.028969,1.2157,0.0011743,0,0,0,0
43.09,0.032642,1.2827,0.0015528,0,0,0,0
45.59,0.038887,1.3309,0.0027193,0,0,0,0
48.09,0.046984,1.37,0.0041514,0,0,0,0
50.59,0.057284,1.4037,0.0050433,0,0,0,0
53.09,0.067453,1.4346,0.0059383,0,0,0,0
55.59,0.07832,1.4627,0.007205,0,0,0,0
58.09,0.089896,1.488,0.0085047,0,0,0,0
60.59,0.101,1.512,0.0089736,0,0,0,0
63.09,0.11375,1.5343,0.0098622,0,0,0,0
65.59,0.12531,1.556,0.011324,0,0,0,0
68.09,0.13795,1.5764,0.012389,0,0,0,0
70.59,0.1501,1.5964,0.012935,0,0,0,0
73.09,0.16248,1.6153,0.013681,0,0,0,0
75.59,0.17555,1.6333,0.014975,0,0,0,0
78.09,0.1881,1.6514,0.016139,0,0,0,0
80.59,0.2016,1.6687,0.016512,0,0,0,0
83.09,0.21393,1.6857,0.017443,0,0,0,0
85.59,0.22782,1.702,0.018534,0,0,0,0
88.09,0.24091,1.7173,0.019611,0,0,0,0
90.59,0.25477,1.7334,0.020198,0,0,0,0
93.09,0.2681,1.7484,0.021006,0,0,0,0
95.59,0.2817,1.764,0.022157,0,0,0,0
98.09,0.29605,1.7783,0.023125,0,0,0,0
100.59,0.30935,1.7927,0.02383,0,0,0,0
103.09,0.32357,1.8067,0.024639,0,0,0,0
105.59,0.33665,1.8203,0.02556,0,0,0,0
108.09,0.35109,1.834,0.026338,0,0,0,0
110.59,0.36478,1.8466,0.027195,0,0,0,0
113.09,0.37918,1.8597,0.02804,0,0,0,0
115.59,0.39284,1.8723,0.029052,0,0,0,0
118.09,0.40677,1.885,0.029834,0,0,0,0
120.59,0.42122,1.897,0.030713,0,0,0,0
123.09,0.4346,1.9087,0.031463,0,0,0,0
125.59,0.44912,1.9207,0.032405,0,0,0,0
128.09,0.46285,1.932,0.03312,0,0,0,0
130.59,0.47743,1.9436,0.033802,0,0,0,0
133.09,0.49119,1.9553,0.034938,0,0,0,0
135.59,0.50592,1.966,0.035813,0,0,0,0
138.09,0.51956,1.977,0.036589,0,0,0,0
140.59,0.53444,1.988,0.03714,0,0,0,0
143.09,0.54815,1.999,0.038304,0,0,0,0
145.59,0.56273,2.0087,0.039144,0,0,0,0
148.09,0.57714,2.019,0.039919,0,0,0,0
150.59,0.59128,2.0293,0.040789,0,0,0,0
153.09,0.60612,2.039,0.041659,0,0,0,0
155.59,0.62036,2.049,0.042625,0,0,0,0
158.09,0.63513,2.059,0.043332,0,0,0,0
160.59,0.64925,2.0684,0.044265,0,0,0,0
163.09,0.6642,2.078,0.045003,0,0,0,0
165.59,0.67824,2.0873,0.046029,0,0,0,0
168.09,0.69323,2.0967,0.046863,0,0,0,0
170.59,0.70735,2.1057,0.047664,0,0,0,0
173.09,0.72212,2.1147,0.048655,0,0,0,0
175.59,0.73647,2.1233,0.049422,0,0,0,0
178.09,0.75117,2.132,0.050413,0,0,0,0
180.59,0.76567,2.1404,0.051338,0,0,0,0
183.09,0.7798,2.149,0.052167,0,0,0,0
185.59,0.79484,2.1573,0.053058,0,0,0,0
188.09,0.80867,2.1653,0.054078,0,0,0,0
190.59,0.8236,2.1737,0.054873,0,0,0,0
193.09,0.83772,2.1813,0.055666,0,0,0,0
195.59,0.85263,2.1893,0.056651,0,0,0,0
198.09,0.86662,2.1967,0.057634,0,0,0,0
200.59,0.88151,2.205,0.058521,0,0,0,0
203.09,0.89561,2.2123,0.059312,0,0,0,0
205.59,0.91051,2.22,0.060418,0,0,0,0
208.09,0.92474,2.227,0.061334,0,0,0,0
210.59,0.93905,2.2347,0.062219,0,0,0,0
213.09,0.95384,2.2417,0.063133,0,0,0,0
215.59,0.96825,2.249,0.064078,0,0,0,0
218.09,0.98301,2.2557,0.064929,0,0,0,0
220.59,0.99724,2.2627,0.06584,0,0,0,0
223.09,1.0122,2.2693,0.066689,0,0,0,0
225.59,1.026,2.2763,0.067756,0,0,0,0
228.09,1.0414,2.283,0.068885,0,0,0,0
230.59,1.0551,2.2893,0.069543,0,0,0,0
233.09,1.0702,2.296,0.070607,0,0,0,0
235.59,1.0843,2.3023,0.07167,0,0,0,0
238.09,1.0995,2.3083,0.07267,0,0,0,0
240.59,1.1136,2.315,0.073513,0,0,0,0
243.09,1.1288,2.321,0.074511,0,0,0,0
245.59,1.1434,2.327,0.075601,0,0,0,0
248.09,1.1579,2.333,0.076441,0,0,0,0
250.59,1.1729,2.3387,0.077404,0,0,0,0
253.09,1.1871,2.345,0.078554,0,0,0,0
255.59,1.2019,2.35,0.079453,0,0,0,0
258.09,1.2161,2.356,0.080414,0,0,0,0
260.59,1.231,2.3617,0.081435,0,0,0,0
263.09,1.245,2.367,0.082611,0,0,0,0
265.59,1.2601,2.372,0.083662,0,0,0,0
268.09,1.2739,2.378,0.084619,0,0,0,0
270.59,1.2892,2.384,0.085821,0,0,0,0
273.09,1.3032,2.388,0.086838,0,0,0,0
275.59,1.3181,2.3937,0.087914,0,0,0,0
278.09,1.3325,2.3987,0.089051,0,0,0,0
280.59,1.347,2.404,0.090034,0,0,0,0
283.09,1.3617,2.409,0.091076,0,0,0,0
285.59,1.3764,2.414,0.092301,0,0,0,0
288.09,1.3911,2.419,0.093373,0,0,0,0
290.59,1.4054,2.423,0.094351,0,0,0,0
293.09,1.4205,2.428,0.095633,0,0,0,0
295.59,1.4345,2.433,0.096548,0,0,0,0
298.09,1.4499,2.4377,0.09801,0,0,0,0
300.59,1.4641,2.442,0.099076,0,0,0,0
303.09,1.4792,2.446,0.10011,0,0,0,0
305.59,1.4933,2.451,0.10123,0,0,0,0
308.09,1.5083,2.4553,0.10263,0,0,0,0
310.59,1.5227,2.46,0.10372,0,0,0,0
313.09,1.5375,2.464,0.10483,0,0,0,0
315.59,1.552,2.4684,0.10595,0,0,0,0
318.09,1.5671,2.4727,0.10731,0,0,0,0
320.59,1.582,2.4763,0.10852,0,0,0,0
323.09,1.5967,2.4803,0.10978,0,0,0,0
325.59,1.6118,2.4843,0.11083,0,0,0,0
328.09,1.6264,2.488,0.11233,0,0,0,0
330.59,1.6417,2.492,0.11368,0,0,0,0
333.09,1.6561,2.496,0.115,0,0,0,0
335.59,1.6716,2.5,0.11614,0,0,0,0
338.09,1.6857,2.5037,0.1176,0,0,0,0
340.59,1.7013,2.5073,0.11888,0,0,0,0
343.09,1.7156,2.5107,0.12005,0,0,0,0
345.59,1.731,2.5143,0.12139,0,0,0,0
348.09,1.7455,2.518,0.12257,0,0,0,0
350.59,1.7608,2.5213,0.12409,0,0,0,0
353.09,1.7752,2.5247,0.12554,0,0,0,0
355.59,1.7906,2.528,0.12699,0,0,0,0
358.09,1.8055,2.5313,0.12829,0,0,0,0
360.59,1.821,2.5343,0.12991,0,0,0,0
363.09,1.8357,2.5377,0.13133,0,0,0,0
365.59,1.8508,2.541,0.13286,0,0,0,0
368.09,1.8658,2.5437,0.13427,0,0,0,0
370.59,1.8808,2.5467,0.13579,0,0,0,0
373.09,1.8961,2.55,0.13731,0,0,0,0
375.59,1.9112,2.5527,0.13886,0,0,0,0
378.09,1.9264,2.5557,0.14041,0,0,0,0
380.59,1.941,2.5583,0.1419,0,0,0,0
383.09,1.9565,2.5617,0.14347,0,0,0,0
385.59,1.9709,2.5637,0.14501,0,0,0,0
388.09,1.9865,2.5667,0.14664,0,0,0,0
390.59,2.0011,2.5693,0.1484,0,0,0,0
393.09,2.0169,2.5717,0.15017,0,0,0,0
395.59,2.0318,2.5737,0.15193,0,0,0,0
398.09,2.0473,2.5763,0.15374,0,0,0,0
400.59,2.0624,2.579,0.15558,0,0,0,0
403.09,2.0782,2.5813,0.15745,0,0,0,0
405.59,2.0935,2.5833,0.15931,0,0,0,0
408.09,2.109,2.5857,0.16117,0,0,0,0
410.59,2.1246,2.5883,0.16305,0,0,0,0
413.09,2.1405,2.59,0.16491,0,0,0,0
415.59,2.1557,2.592,0.16667,0,0,0,0
418.09,2.1716,2.5943,0.16874,0,0,0,0
420.59,2.1871,2.596,0.17098,0,0,0,0
423.09,2.2023,2.5983,0.17282,0,0,0,0
425.59,2.2181,2.6,0.17482,0,0,0,0
428.09,2.2338,2.6017,0.17707,0,0,0,0
430.59,2.2496,2.6033,0.17957,0,0,0,0
433.09,2.2649,2.6053,0.18184,0,0,0,0
435.59,2.281,2.607,0.18397,0,0,0,0
438.09,2.2965,2.6083,0.18628,0,0,0,0
440.59,2.3128,2.6093,0.1889,0,0,0,0
443.09,2.3282,2.6113,0.19137,0,0,0,0
445.59,2.3445,2.6123,0.19403,0,0,0,0
448.09,2.3598,2.6133,0.19637,0,0,0,0
450.59,2.376,2.615,0.19883,0,0,0,0
453.09,2.3918,2.616,0.2016,0,0,0,0
455.59,2.4081,2.617,0.20448,0,0,0,0
458.09,2.4234,2.618,0.20708,0,0,0,0
460.59,2.4399,2.619,0.21005,0,0,0,0
463.09,2.4554,2.62,0.21306,0,0,0,0
465.59,2.4717,2.6203,0.21604,0,0,0,0
468.09,2.4874,2.6213,0.2192,0,0,0,0
470.59,2.504,2.622,0.22275,0,0,0,0
473.09,2.5196,2.622,0.22613,0,0,0,0
475.59,2.5364,2.6227,0.22985,0,0,0,0
478.09,2.5524,2.623,0.23334,0,0,0,0
480.59,2.5686,2.623,0.23729,0,0,0,0
483.09,2.5848,2.623,0.24115,0,0,0,0
485.59,2.6017,2.623,0.24518,0,0,0,0
488.09,2.6175,2.622,0.24955,0,0,0,0
490.59,2.6342,2.622,0.25373,0,0,0,0
493.09,2.6506,2.6213,0.25822,0,0,0,0
495.59,2.6672,2.6207,0.26291,0,0,0,0
498.09,2.6836,2.6197,0.26759,0,0,0,0
500.58,2.7004,2.6183,0.273,0,0,0,0
503.08,2.7169,2.617,0.27827,0,0,0,0
505.58,2.7337,2.615,0.28372,0,0,0,0
508.09,2.7503,2.6133,0.28942,0,0,0,0
510.59,2.767,2.611,0.29531,0,0,0,0
513.09,2.7837,2.6083,0.30169,0,0,0,0
515.59,2.8007,2.605,0.3077,0,0,0,0
518.09,2.8172,2.6013,0.31457,0,0,0,0
520.59,2.8343,2.5977,0.32104,0,0,0,0
523.09,2.8511,2.593,0.32799,0,0,0,0
525.59,2.8684,2.587,0.33523,0,0,0,0
528.08,2.8851,2.5813,0.34263,0,0,0,0
530.59,2.9024,2.574,0.35014,0,0,0,0
533.09,2.9195,2.566,0.35812,0,0,0,0
535.59,2.9367,2.5567,0.36592,0,0,0,0
538.09,2.9541,2.5457,0.37403,0,0,0,0
540.59,2.9719,2.5333,0.38186,0,0,0,0
543.09,2.9892,2.5197,0.39027,0,0,0,0
545.59,3.0075,2.504,0.39848,0,0,0,0
548.09,3.0255,2.4856,0.40706,0,0,0,0
550.59,3.0442,2.4657,0.41626,0,0,0,0
553.09,3.0625,2.4427,0.42527,0,0,0,0
555.59,3.0817,2.4167,0.4338,0,0,0,0
558.08,3.1004,2.3874,0.44333,0,0,0,0
560.59,3.1203,2.3526,0.45289,0,0,0,0
562.08,3.1322,2.3274,0.45865,0,0,0,0

File: NT20_90_1.csv
Time[s],Displacement[mm],Force[kN],AxStrain_1,AxStrain_2,Thickness[mm],OuterWidth[mm],InnerWidth[mm]
0.61,0,-0.0057948,0,0,1.1118,20,10.053
3.11,0.00232,0.085423,2.2e-05,0,0,0,0
5.61,0.003937,0.17158,0.00021598,0,0,0,0
8.11,0.005276,0.23629,0.00027296,0,0,0,0
10.61,0.006772,0.30786,0.00029196,0,0,0,0
13.11,0.009043,0.37815,0.00050387,0,0,0,0
15.61,0.010679,0.45285,0.00050387,0,0,0,0
18.11,0.012109,0.529,0.00060082,0,0,0,0
20.61,0.013916,0.60586,0.00058383,0,0,0,0
23.11,0.016484,0.68443,0.00055385,0,0,0,0
25.61,0.018579,0.76143,0.00062081,0,0,0,0
28.11,0.020268,0.839,0.00074872,0,0,0,0
30.61,0.022225,0.916,0.00080867,0,0,0,0
33.11,0.024666,0.99286,0.00080568,0,0,0,0
35.61,0.027459,1.0671,0.00098951,0,0,0,0
38.11,0.029329,1.1419,0.0010774,0,0,0,0
40.61,0.032028,1.214,0.0010774,0,0,0,0
43.11,0.035419,1.2829,0.0013621,0,0,0,0
45.61,0.039998,1.3411,0.0022505,0,0,0,0
48.11,0.048358,1.377,0.0041145,0,0,0,0
50.62,0.059007,1.4107,0.0050562,0,0,0,0
53.11,0.069136,1.441,0.0063955,0,0,0,0
55.61,0.080366,1.4686,0.0079682,0,0,0,0
58.11,0.091807,1.494,0.0091669,0,0,0,0
60.61,0.10312,1.5184,0.0095562,0,0,0,0
63.11,0.11613,1.541,0.01057,0,0,0,0
65.61,0.12792,1.5623,0.012116,0,0,0,0
68.11,0.14012,1.583,0.013399,0,0,0,0
70.61,0.15287,1.6027,0.01376,0,0,0,0
73.11,0.165,1.6213,0.014353,0,0,0,0
75.61,0.17824,1.6403,0.015765,0,0,0,0
78.11,0.1906,1.6583,0.016951,0,0,0,0
80.61,0.20422,1.6753,0.017471,0,0,0,0
83.11,0.21669,1.6927,0.017993,0,0,0,0
85.61,0.23046,1.7093,0.019202,0,0,0,0
88.11,0.24377,1.7256,0.020226,0,0,0,0
90.61,0.25741,1.7417,0.020893,0,0,0,0
93.11,0.27109,1.757,0.021486,0,0,0,0
95.62,0.28457,1.772,0.022677,0,0,0,0
98.11,0.29879,1.7867,0.023602,0,0,0,0
100.61,0.31225,1.8013,0.024514,0,0,0,0
103.11,0.32646,1.8153,0.025342,0,0,0,0
105.61,0.33999,1.8294,0.02616,0,0,0,0
108.11,0.35467,1.843,0.027007,0,0,0,0
110.61,0.36828,1.8563,0.027908,0,0,0,0
113.11,0.38255,1.8693,0.028704,0,0,0,0
115.61,0.39615,1.8817,0.029506,0,0,0,0
118.11,0.41008,1.8947,0.030289,0,0,0,0
120.61,0.42463,1.907,0.031265,0,0,0,0
123.11,0.43847,1.9193,0.031981,0,0,0,0
125.61,0.45304,1.931,0.032956,0,0,0,0
128.11,0.46657,1.9427,0.033573,0,0,0,0
130.61,0.48138,1.9547,0.034384,0,0,0,0
133.11,0.49503,1.966,0.035454,0,0,0,0
135.61,0.5099,1.977,0.036199,0,0,0,0
138.11,0.52385,1.988,0.036847,0,0,0,0
140.61,0.53842,1.999,0.037817,0,0,0,0
143.11,0.55268,2.01,0.038786,0,0,0,0
145.61,0.56593,2.02,0.039593,0,0,0,0
148.11,0.58038,2.0303,0.040335,0,0,0,0
150.61,0.59436,2.041,0.04098,0,0,0,0
153.11,0.60921,2.051,0.041849,0,0,0,0
155.61,0.623,2.061,0.042654,0,0,0,0
158.11,0.63788,2.071,0.043555,0,0,0,0
160.61,0.6519,2.08,0.044582,0,0,0,0
163.11,0.66701,2.09,0.045224,0,0,0,0
165.61,0.68089,2.099,0.045866,0,0,0,0
168.11,0.69612,2.109,0.046795,0,0,0,0
170.61,0.71023,2.1177,0.04766,0,0,0,0
173.11,0.72386,2.1267,0.048523,0,0,0,0
175.61,0.73873,2.136,0.04926,0,0,0,0
178.11,0.75225,2.1447,0.050122,0,0,0,0
180.61,0.7675,2.153,0.051302,0,0,0,0
183.11,0.78185,2.161,0.052068,0,0,0,0
185.61,0.79627,2.1697,0.052546,0,0,0,0
188.11,0.81046,2.178,0.053342,0,0,0,0
190.61,0.82493,2.186,0.054551,0,0,0,0
193.11,0.83887,2.1937,0.055567,0,0,0,0
195.61,0.85284,2.2017,0.056138,0,0,0,0
198.11,0.86745,2.2097,0.056963,0,0,0,0
200.61,0.88236,2.2173,0.057914,0,0,0,0
203.11,0.89607,2.2247,0.058864,0,0,0,0
205.61,0.91046,2.2317,0.059624,0,0,0,0
208.11,0.92467,2.239,0.060415,0,0,0,0
210.61,0.93889,2.2463,0.061456,0,0,0,0
213.11,0.9533,2.2533,0.062403,0,0,0,0
215.61,0.96733,2.2607,0.063192,0,0,0,0
218.11,0.98216,2.2677,0.063853,0,0,0,0
220.61,0.99602,2.2743,0.064798,0,0,0,0
223.11,1.0106,2.281,0.065741,0,0,0,0
225.61,1.024,2.2877,0.06681,0,0,0,0
228.11,1.0388,2.294,0.067532,0,0,0,0
230.61,1.053,2.301,0.068378,0,0,0,0
233.11,1.0669,2.3073,0.069381,0,0,0,0
235.61,1.0813,2.3133,0.070226,0,0,0,0
238.11,1.0949,2.3197,0.07104,0,0,0,0
240.61,1.1098,2.326,0.07204,0,0,0,0
243.11,1.124,2.332,0.072852,0,0,0,0
245.61,1.1378,2.338,0.073881,0,0,0,0
248.11,1.1525,2.3443,0.074878,0,0,0,0
250.61,1.1673,2.3497,0.075751,0,0,0,0
253.11,1.181,2.3557,0.076591,0,0,0,0
255.61,1.1959,2.3613,0.077429,0,0,0,0
258.11,1.2096,2.367,0.078579,0,0,0,0
260.61,1.2241,2.3727,0.079572,0,0,0,0
263.11,1.238,2.3783,0.080439,0,0,0,0
265.61,1.2522,2.384,0.081368,0,0,0,0
268.11,1.2663,2.389,0.082389,0,0,0,0
270.61,1.2803,2.395,0.083502,0,0,0,0
273.11,1.2948,2.3997,0.084428,0,0,0,0
275.61,1.3085,2.405,0.085414,0,0,0,0
278.11,1.3234,2.41,0.086462,0,0,0,0
280.61,1.3366,2.415,0.087508,0,0,0,0
283.11,1.3517,2.42,0.088646,0,0,0,0
285.61,1.3656,2.425,0.089751,0,0,0,0
288.11,1.3802,2.4303,0.090763,0,0,0,0
290.61,1.3944,2.435,0.091836,0,0,0,0
293.11,1.4088,2.44,0.092785,0,0,0,0
295.61,1.4225,2.4443,0.093794,0,0,0,0
298.11,1.4378,2.4493,0.094864,0,0,0,0
300.61,1.452,2.4536,0.096145,0,0,0,0
303.11,1.4661,2.4586,0.09712,0,0,0,0
305.61,1.4808,2.463,0.098247,0,0,0,0
308.11,1.4949,2.4673,0.099403,0,0,0,0
310.61,1.5097,2.472,0.10059,0,0,0,0
313.11,1.5237,2.476,0.10147,0,0,0,0
315.61,1.5387,2.4807,0.10268,0,0,0,0
318.11,1.5527,2.485,0.10395,0,0,0,0
320.61,1.5675,2.489,0.10519,0,0,0,0
323.11,1.5819,2.493,0.1064,0,0,0,0
325.61,1.5967,2.497,0.10749,0,0,0,0
328.11,1.6112,2.501,0.10857,0,0,0,0
330.61,1.6259,2.505,0.10996,0,0,0,0
333.11,1.6407,2.5087,0.11107,0,0,0,0
335.61,1.655,2.5127,0.11242,0,0,0,0
338.11,1.6698,2.5163,0.1135,0,0,0,0
340.61,1.6841,2.52,0.11473,0,0,0,0
343.11,1.6992,2.5237,0.11607,0,0,0,0
345.61,1.7133,2.5273,0.11739,0,0,0,0
348.11,1.7286,2.531,0.11837,0,0,0,0
350.61,1.7434,2.5343,0.12001,0,0,0,0
353.11,1.7581,2.538,0.12135,0,0,0,0
355.61,1.7729,2.5413,0.12269,0,0,0,0
358.11,1.7873,2.5447,0.12402,0,0,0,0
360.61,1.8021,2.5477,0.12562,0,0,0,0
363.11,1.8169,2.551,0.12707,0,0,0,0
365.61,1.8316,2.5543,0.1284,0,0,0,0
368.11,1.8466,2.5573,0.12985,0,0,0,0
370.61,1.8615,2.5603,0.13126,0,0,0,0
373.11,1.8764,2.5633,0.13285,0,0,0,0
375.61,1.8914,2.5663,0.13417,0,0,0,0
378.11,1.9063,2.5693,0.1357,0,0,0,0
380.61,1.9213,2.572,0.13725,0,0,0,0
383.11,1.936,2.5747,0.13912,0,0,0,0
385.61,1.9514,2.5773,0.14084,0,0,0,0
388.11,1.9658,2.5803,0.14201,0,0,0,0
390.61,1.9811,2.5827,0.14381,0,0,0,0
393.11,1.9963,2.5853,0.1457,0,0,0,0
395.61,2.0115,2.5877,0.14733,0,0,0,0
398.11,2.0264,2.5903,0.14924,0,0,0,0
400.61,2.0419,2.5927,0.15085,0,0,0,0
403.11,2.0569,2.595,0.15256,0,0,0,0
405.61,2.0728,2.597,0.15443,0,0,0,0
408.11,2.0879,2.5997,0.15653,0,0,0,0
410.61,2.1035,2.6017,0.15833,0,0,0,0
413.11,2.1187,2.6037,0.16019,0,0,0,0
415.61,2.1342,2.6057,0.16217,0,0,0,0
418.11,2.1498,2.6077,0.16425,0,0,0,0
420.61,2.1651,2.6097,0.16641,0,0,0,0
423.11,2.1807,2.6113,0.16834,0,0,0,0
425.61,2.1957,2.613,0.17047,0,0,0,0
428.11,2.2118,2.615,0.17304,0,0,0,0
430.61,2.2273,2.6167,0.1753,0,0,0,0
433.11,2.2433,2.618,0.17769,0,0,0,0
435.61,2.2589,2.6197,0.17999,0,0,0,0
438.11,2.2748,2.6207,0.18251,0,0,0,0
440.61,2.2905,2.6217,0.18517,0,0,0,0
443.11,2.3064,2.6237,0.18748,0,0,0,0
445.61,2.3222,2.624,0.19037,0,0,0,0
448.11,2.3383,2.6256,0.19306,0,0,0,0
450.61,2.3539,2.627,0.19579,0,0,0,0
453.11,2.3699,2.6276,0.19896,0,0,0,0
455.61,2.3854,2.628,0.20185,0,0,0,0
458.11,2.4015,2.629,0.20486,0,0,0,0
460.61,2.4173,2.63,0.20816,0,0,0,0
463.11,2.4334,2.63,0.21151,0,0,0,0
465.61,2.4492,2.6303,0.2149,0,0,0,0
468.11,2.4655,2.631,0.21844,0,0,0,0
470.61,2.4818,2.631,0.22216,0,0,0,0
473.11,2.498,2.631,0.22632,0,0,0,0
475.61,2.5142,2.631,0.23054,0,0,0,0
478.11,2.5306,2.631,0.23488,0,0,0,0
480.61,2.547,2.63,0.23933,0,0,0,0
483.11,2.5634,2.6293,0.24381,0,0,0,0
485.61,2.5798,2.628,0.24867,0,0,0,0
488.11,2.5968,2.627,0.25378,0,0,0,0
490.61,2.6132,2.626,0.25916,0,0,0,0
493.11,2.6296,2.624,0.26484,0,0,0,0
495.61,2.6466,2.622,0.27065,0,0,0,0
498.11,2.6632,2.6193,0.27695,0,0,0,0
500.61,2.6797,2.617,0.28327,0,0,0,0
503.11,2.6966,2.614,0.28983,0,0,0,0
505.61,2.7132,2.6097,0.29686,0,0,0,0
508.11,2.7306,2.605,0.30439,0,0,0,0
510.61,2.7473,2.6,0.31221,0,0,0,0
513.11,2.7647,2.594,0.3205,0,0,0,0
515.61,2.7816,2.5877,0.32909,0,0,0,0
518.11,2.7989,2.5797,0.33739,0,0,0,0
520.61,2.8164,2.5713,0.34655,0,0,0,0
523.11,2.8339,2.5616,0.35654,0,0,0,0
525.61,2.8508,2.551,0.36599,0,0,0,0
528.11,2.8687,2.539,0.37584,0,0,0,0
530.61,2.8862,2.5256,0.3855,0,0,0,0
533.11,2.9042,2.5116,0.39597,0,0,0,0
535.61,2.9222,2.4957,0.40629,0,0,0,0
538.11,2.9401,2.4774,0.41823,0,0,0,0
540.61,2.9581,2.4584,0.43041,0,0,0,0
543.11,2.9766,2.4367,0.44349,0,0,0,0
545.61,2.9949,2.4116,0.45638,0,0,0,0
548.11,3.0139,2.3837,0.46944,0,0,0,0
550.61,3.0333,2.3517,0.48271,0,0,0,0
552.11,3.0455,2.3276,0.49155,0,0,0,0

File: NT20_90_2.csv
Time[s],Displacement[mm],Force[kN],AxStrain_1,AxStrain_2,Thickness[mm],OuterWidth[mm],InnerWidth[mm]
0.6,0,-0.004886,0,0,1.1134,20,10.095
3.1,0.002422,0.086278,0.00016999,0,0,0,0
5.6,0.003701,0.16943,0.00017898,0,0,0,0
8.1,0.004929,0.23857,0.00013099,0,0,0,0
10.6,0.006512,0.307,0.00014799,0,0,0,0
13.1,0.008846,0.37843,0.00046789,0,0,0,0
15.6,0.010263,0.45214,0.00041591,0,0,0,0
18.1,0.0117,0.52785,0.00033894,0,0,0,0
20.6,0.01356,0.60471,0.00039992,0,0,0,0
23.1,0.016021,0.682,0.00047289,0,0,0,0
25.6,0.018414,0.76185,0.00071774,0,0,0,0
28.1,0.019861,0.83657,0.00072174,0,0,0,0
30.6,0.021164,0.91529,0.00070175,0,0,0,0
33.1,0.024407,0.991,0.0008956,0,0,0,0
35.6,0.026656,1.0661,0.00092657,0,0,0,0
38.1,0.028946,1.1404,0.0012143,0,0,0,0
40.6,0.031085,1.2121,0.0011543,0,0,0,0
43.1,0.03468,1.2809,0.001416,0,0,0,0
45.6,0.039072,1.3384,0.0023373,0,0,0,0
48.1,0.047401,1.3751,0.004241,0,0,0,0
50.6,0.058007,1.4083,0.0049696,0,0,0,0
53.1,0.067746,1.44,0.0059711,0,0,0,0
55.6,0.078822,1.468,0.0076626,0,0,0,0
58.1,0.090475,1.4936,0.0091906,0,0,0,0
60.6,0.1021,1.5177,0.0095126,0,0,0,0
63.1,0.11482,1.5407,0.010258,0,0,0,0
65.6,0.12639,1.562,0.011523,0,0,0,0
68.1,0.13899,1.5827,0.013036,0,0,0,0
70.6,0.15103,1.603,0.013349,0,0,0,0
73.1,0.16342,1.622,0.013896,0,0,0,0
75.6,0.177,1.6407,0.015058,0,0,0,0
78.1,0.18881,1.6583,0.016519,0,0,0,0
80.6,0.2025,1.676,0.017152,0,0,0,0
83.1,0.21501,1.6934,0.017635,0,0,0,0
85.6,0.229,1.7097,0.018927,0,0,0,0
88.1,0.24215,1.726,0.01991,0,0,0,0
90.6,0.25626,1.7417,0.020552,0,0,0,0
93.1,0.26963,1.757,0.021128,0,0,0,0
95.6,0.28289,1.7723,0.022264,0,0,0,0
98.1,0.29706,1.7877,0.023308,0,0,0,0
100.6,0.3106,1.802,0.023842,0,0,0,0
103.1,0.32517,1.816,0.024649,0,0,0,0
105.6,0.33875,1.83,0.025402,0,0,0,0
108.1,0.35297,1.8437,0.026469,0,0,0,0
110.6,0.36619,1.857,0.027151,0,0,0,0
113.1,0.38056,1.8697,0.027647,0,0,0,0
115.6,0.39446,1.8827,0.02879,0,0,0,0
118.1,0.40772,1.8953,0.029573,0,0,0,0
120.6,0.42263,1.9077,0.030258,0,0,0,0
123.1,0.43592,1.92,0.031006,0,0,0,0
125.6,0.45074,1.9317,0.032047,0,0,0,0
128.1,0.46422,1.9433,0.032827,0,0,0,0
130.6,0.47925,1.955,0.033574,0,0,0,0
133.1,0.49253,1.9663,0.034353,0,0,0,0
135.6,0.50757,1.9777,0.035358,0,0,0,0
138.1,0.52095,1.9887,0.036103,0,0,0,0
140.6,0.53552,1.9997,0.036977,0,0,0,0
143.1,0.54954,2.011,0.037624,0,0,0,0
145.6,0.56401,2.0207,0.038529,0,0,0,0
148.1,0.57809,2.031,0.039336,0,0,0,0
150.6,0.59207,2.042,0.040111,0,0,0,0
153.1,0.60649,2.052,0.040981,0,0,0,0
155.6,0.62021,2.062,0.041593,0,0,0,0
158.1,0.6353,2.0713,0.042624,0,0,0,0
160.6,0.64836,2.081,0.043652,0,0,0,0
163.1,0.66422,2.0906,0.044327,0,0,0,0
165.6,0.67748,2.1003,0.04513,0,0,0,0
168.1,0.69256,2.109,0.046156,0,0,0,0
170.6,0.70647,2.1187,0.046893,0,0,0,0
173.1,0.72112,2.1277,0.047438,0,0,0,0
175.6,0.73507,2.1364,0.04843,0,0,0,0
178.1,0.7497,2.1453,0.049389,0,0,0,0
180.6,0.76415,2.154,0.050156,0,0,0,0
183.1,0.778,2.162,0.050986,0,0,0,0
185.6,0.79256,2.171,0.051624,0,0,0,0
188.1,0.80643,2.1787,0.052771,0,0,0,0
190.6,0.82131,2.187,0.053503,0,0,0,0
193.1,0.83461,2.1953,0.054426,0,0,0,0
195.6,0.84974,2.2027,0.055061,0,0,0,0
198.1,0.86308,2.2103,0.056078,0,0,0,0
200.6,0.87756,2.2183,0.056871,0,0,0,0
203.1,0.8915,2.2257,0.057505,0,0,0,0
205.6,0.9057,2.233,0.058425,0,0,0,0
208.1,0.91996,2.24,0.059468,0,0,0,0
210.6,0.93368,2.248,0.060069,0,0,0,0
213.1,0.94831,2.2547,0.06067,0,0,0,0
215.6,0.96183,2.2617,0.061712,0,0,0,0
218.1,0.97673,2.2687,0.062626,0,0,0,0
220.6,0.99025,2.275,0.063541,0,0,0,0
223.1,1.0051,2.282,0.064234,0,0,0,0
225.6,1.0184,2.2887,0.065021,0,0,0,0
228.1,1.0332,2.2957,0.065995,0,0,0,0
230.6,1.0471,2.302,0.066938,0,0,0,0
233.1,1.0614,2.3083,0.067565,0,0,0,0
235.6,1.0754,2.3147,0.068569,0,0,0,0
238.1,1.0895,2.321,0.069541,0,0,0,0
240.6,1.1042,2.327,0.070354,0,0,0,0
243.1,1.1177,2.3337,0.071356,0,0,0,0
245.6,1.1327,2.34,0.072355,0,0,0,0
248.1,1.146,2.346,0.073323,0,0,0,0
250.6,1.161,2.3517,0.074228,0,0,0,0
253.1,1.1745,2.3573,0.074913,0,0,0,0
255.6,1.1889,2.363,0.076003,0,0,0,0
258.1,1.2025,2.369,0.076873,0,0,0,0
260.6,1.2167,2.3743,0.077713,0,0,0,0
263.1,1.2307,2.3807,0.078612,0,0,0,0
265.6,1.2446,2.385,0.079823,0,0,0,0
268.1,1.2588,2.391,0.08066,0,0,0,0
270.6,1.2725,2.397,0.081774,0,0,0,0
273.1,1.2871,2.402,0.082578,0,0,0,0
275.6,1.3006,2.407,0.083473,0,0,0,0
278.1,1.3153,2.4127,0.084802,0,0,0,0
280.6,1.3288,2.418,0.085664,0,0,0,0
283.1,1.3435,2.423,0.086619,0,0,0,0
285.6,1.3575,2.428,0.087819,0,0,0,0
288.1,1.3721,2.433,0.08868,0,0,0,0
290.6,1.3862,2.438,0.089694,0,0,0,0
293.1,1.4004,2.4427,0.090614,0,0,0,0
295.6,1.4146,2.4477,0.091778,0,0,0,0
298.1,1.4288,2.452,0.092941,0,0,0,0
300.6,1.4434,2.456,0.093797,0,0,0,0
303.1,1.4571,2.4613,0.095081,0,0,0,0
305.6,1.472,2.466,0.095905,0,0,0,0
308.1,1.4857,2.4707,0.097063,0,0,0,0
310.6,1.5008,2.475,0.098159,0,0,0,0
313.1,1.5147,2.4793,0.099254,0,0,0,0
315.6,1.5295,2.484,0.10038,0,0,0,0
318.1,1.5434,2.488,0.10138,0,0,0,0
320.6,1.5584,2.4927,0.10253,0,0,0,0
323.1,1.5725,2.4967,0.10374,0,0,0,0
325.6,1.5871,2.5003,0.1051,0,0,0,0
328.1,1.6015,2.505,0.10601,0,0,0,0
330.6,1.6163,2.509,0.10716,0,0,0,0
333.1,1.6306,2.5123,0.10836,0,0,0,0
335.6,1.645,2.5163,0.10978,0,0,0,0
338.1,1.66,2.5203,0.11071,0,0,0,0
340.6,1.6735,2.5243,0.11212,0,0,0,0
343.1,1.6885,2.5277,0.11335,0,0,0,0
345.6,1.7024,2.5317,0.11458,0,0,0,0
348.1,1.7174,2.5353,0.11599,0,0,0,0
350.6,1.7313,2.5387,0.11709,0,0,0,0
353.1,1.7463,2.5427,0.11858,0,0,0,0
355.6,1.7608,2.546,0.12005,0,0,0,0
358.1,1.776,2.5497,0.12138,0,0,0,0
360.6,1.7905,2.5524,0.1226,0,0,0,0
363.1,1.8057,2.556,0.12412,0,0,0,0
365.6,1.8203,2.559,0.12542,0,0,0,0
368.1,1.835,2.5623,0.12678,0,0,0,0
370.6,1.8504,2.565,0.12796,0,0,0,0
373.1,1.8645,2.5687,0.12953,0,0,0,0
375.6,1.8796,2.5717,0.13077,0,0,0,0
378.1,1.8943,2.5743,0.13236,0,0,0,0
380.6,1.9093,2.5777,0.13394,0,0,0,0
383.1,1.9238,2.5807,0.13523,0,0,0,0
385.6,1.9394,2.5833,0.13685,0,0,0,0
388.1,1.9533,2.5863,0.13851,0,0,0,0
390.6,1.9689,2.5893,0.14009,0,0,0,0
393.1,1.9836,2.5917,0.14161,0,0,0,0
395.6,1.9987,2.594,0.1433,0,0,0,0
398.09,2.0138,2.5967,0.14513,0,0,0,0
400.6,2.0291,2.5993,0.14687,0,0,0,0
403.1,2.0445,2.6017,0.14866,0,0,0,0
405.6,2.0599,2.6037,0.15031,0,0,0,0
408.1,2.0753,2.6063,0.15201,0,0,0,0
410.59,2.0905,2.6087,0.15394,0,0,0,0
413.09,2.1059,2.6107,0.15587,0,0,0,0
415.6,2.121,2.613,0.15762,0,0,0,0
418.1,2.1363,2.615,0.15957,0,0,0,0
420.59,2.1517,2.617,0.16166,0,0,0,0
423.1,2.1674,2.619,0.16363,0,0,0,0
425.6,2.1826,2.621,0.16542,0,0,0,0
428.1,2.1984,2.6227,0.16775,0,0,0,0
430.59,2.2136,2.6247,0.17002,0,0,0,0
433.09,2.2291,2.6267,0.17226,0,0,0,0
435.59,2.2446,2.628,0.17454,0,0,0,0
438.09,2.2602,2.6293,0.17702,0,0,0,0
440.59,2.2759,2.6307,0.17913,0,0,0,0
443.09,2.2918,2.6327,0.18151,0,0,0,0
445.6,2.3072,2.6333,0.18417,0,0,0,0
448.09,2.3231,2.635,0.18654,0,0,0,0
450.59,2.3386,2.636,0.1889,0,0,0,0
453.09,2.355,2.637,0.19168,0,0,0,0
455.59,2.3703,2.638,0.19448,0,0,0,0
458.09,2.3865,2.6393,0.19718,0,0,0,0
460.59,2.4018,2.64,0.19999,0,0,0,0
463.09,2.4183,2.641,0.20326,0,0,0,0
465.6,2.4337,2.641,0.20605,0,0,0,0
468.09,2.4498,2.642,0.20951,0,0,0,0
470.59,2.466,2.642,0.21309,0,0,0,0
473.09,2.4823,2.643,0.21629,0,0,0,0
475.59,2.4982,2.643,0.22015,0,0,0,0
478.1,2.5147,2.643,0.2238,0,0,0,0
480.59,2.5308,2.642,0.22782,0,0,0,0
483.09,2.5475,2.642,0.23202,0,0,0,0
485.59,2.5638,2.642,0.23622,0,0,0,0
488.09,2.5801,2.641,0.24069,0,0,0,0
490.59,2.5966,2.64,0.24551,0,0,0,0
493.09,2.613,2.638,0.25027,0,0,0,0
495.59,2.6298,2.637,0.25543,0,0,0,0
498.09,2.6462,2.6353,0.26087,0,0,0,0
500.59,2.663,2.6333,0.26644,0,0,0,0
503.09,2.6799,2.6307,0.27206,0,0,0,0
505.59,2.6964,2.6273,0.27785,0,0,0,0
508.09,2.7133,2.6243,0.28419,0,0,0,0
510.59,2.7304,2.6203,0.29011,0,0,0,0
513.09,2.7473,2.616,0.29663,0,0,0,0
515.59,2.7644,2.6103,0.30334,0,0,0,0
518.09,2.7813,2.6043,0.31018,0,0,0,0
520.59,2.7984,2.5977,0.3173,0,0,0,0
523.09,2.8155,2.5893,0.32465,0,0,0,0
525.59,2.8331,2.581,0.33207,0,0,0,0
528.09,2.8501,2.5714,0.33947,0,0,0,0
530.59,2.8679,2.5607,0.34719,0,0,0,0
533.09,2.8853,2.5483,0.35503,0,0,0,0
535.59,2.9029,2.535,0.36275,0,0,0,0
538.09,2.9208,2.52,0.37104,0,0,0,0
540.59,2.9386,2.504,0.37912,0,0,0,0
543.09,2.9569,2.4867,0.38741,0,0,0,0
545.59,2.9753,2.4663,0.39599,0,0,0,0
548.09,2.9936,2.4453,0.40444,0,0,0,0
550.59,3.0122,2.4197,0.41339,0,0,0,0
553.09,3.0319,2.3927,0.42266,0,0,0,0
555.09,3.047,2.3651,0.43064,0,0,0,0