Folder: ethz/lab_data/AA6014-T4_results/DATA (part 4)

File: NT6_00_2.csv
Time[s],Displacement[mm],Force[kN],AxStrain_1,AxStrain_2,Thickness[mm],OuterWidth[mm],InnerWidth[mm]
0.63,0,-0.0046852,0,0,1.1226,20,10
2.63,0.001731,0.063282,3.2999e-05,0,0,0,0
4.63,0.002746,0.13743,0.00011899,0,0,0,0
6.63,0.003861,0.21215,0.00016799,0,0,0,0
8.63,0.004607,0.25457,-4.0001e-05,0,0,0,0
10.63,0.00613,0.31229,0.00011499,0,0,0,0
12.63,0.00764,0.36857,0.00030395,0,0,0,0
14.63,0.008648,0.42943,0.00014799,0,0,0,0
16.63,0.009514,0.48771,0.00013399,0,0,0,0
18.63,0.010488,0.55071,0.00017498,0,0,0,0
20.63,0.011972,0.61285,0.00047289,0,0,0,0
22.63,0.013839,0.67515,0.00030895,0,0,0,0
24.63,0.015833,0.73915,0.00045989,0,0,0,0
26.63,0.016991,0.80085,0.00061381,0,0,0,0
28.63,0.01779,0.86571,0.00043291,0,0,0,0
30.63,0.019166,0.92615,0.00053686,0,0,0,0
32.63,0.020838,0.99014,0.00084864,0,0,0,0
34.63,0.023135,1.05,0.00073873,0,0,0,0
36.63,0.024958,1.112,0.00069776,0,0,0,0
38.63,0.026566,1.1714,0.00079868,0,0,0,0
40.63,0.028036,1.2299,0.0010405,0,0,0,0
42.63,0.030101,1.2879,0.0010435,0,0,0,0
44.63,0.032774,1.3429,0.0013022,0,0,0,0
46.63,0.035557,1.397,0.0016776,0,0,0,0
48.63,0.03879,1.4436,0.0022604,0,0,0,0
50.63,0.044054,1.4861,0.0027931,0,0,0,0
52.63,0.050184,1.5213,0.0034789,0,0,0,0
54.63,0.056801,1.5537,0.0044849,0,0,0,0
56.63,0.063646,1.5824,0.0057047,0,0,0,0
58.63,0.071979,1.6097,0.0069121,0,0,0,0
60.63,0.079872,1.6346,0.0075216,0,0,0,0
62.63,0.087751,1.6584,0.0080148,0,0,0,0
64.63,0.096765,1.6816,0.0087308,0,0,0,0
66.63,0.10567,1.7026,0.010214,0,0,0,0
68.63,0.11427,1.7247,0.0112,0,0,0,0
70.63,0.12373,1.7443,0.011708,0,0,0,0
72.63,0.13332,1.764,0.012001,0,0,0,0
74.63,0.1424,1.7827,0.012866,0,0,0,0
76.63,0.1523,1.8013,0.014098,0,0,0,0
78.63,0.16232,1.8193,0.015186,0,0,0,0
80.63,0.17171,1.8367,0.01561,0,0,0,0
82.63,0.18194,1.8543,0.015917,0,0,0,0
84.63,0.19221,1.8703,0.016654,0,0,0,0
86.63,0.20178,1.8877,0.017842,0,0,0,0
88.63,0.21248,1.9033,0.018656,0,0,0,0
90.63,0.22261,1.9193,0.019282,0,0,0,0
92.63,0.23249,1.9347,0.019598,0,0,0,0
94.63,0.24378,1.9496,0.020579,0,0,0,0
96.63,0.25376,1.9647,0.021282,0,0,0,0
98.63,0.26378,1.9787,0.022333,0,0,0,0
100.63,0.27486,1.9934,0.022874,0,0,0,0
102.63,0.2849,2.0073,0.023216,0,0,0,0
104.63,0.29547,2.0217,0.024009,0,0,0,0
106.63,0.30646,2.034,0.024852,0,0,0,0
108.63,0.31745,2.0477,0.0256,0,0,0,0
110.63,0.32796,2.0604,0.026533,0,0,0,0
112.63,0.33863,2.0734,0.027033,0,0,0,0
114.63,0.34886,2.086,0.02755,0,0,0,0
116.63,0.35983,2.0977,0.028398,0,0,0,0
118.63,0.37073,2.11,0.029116,0,0,0,0
120.63,0.38125,2.122,0.029768,0,0,0,0
122.63,0.39284,2.133,0.030615,0,0,0,0
124.63,0.4037,2.145,0.031136,0,0,0,0
126.63,0.41434,2.1563,0.031786,0,0,0,0
128.63,0.42629,2.167,0.032469,0,0,0,0
130.63,0.43676,2.178,0.033249,0,0,0,0
132.63,0.44792,2.1887,0.033898,0,0,0,0
134.63,0.45958,2.199,0.034514,0,0,0,0
136.63,0.46999,2.2097,0.035228,0,0,0,0
138.63,0.48154,2.2197,0.036071,0,0,0,0
140.63,0.49305,2.2297,0.036815,0,0,0,0
142.63,0.50351,2.2393,0.037494,0,0,0,0
144.63,0.51532,2.249,0.037914,0,0,0,0
146.63,0.5265,2.2587,0.038948,0,0,0,0
148.63,0.53734,2.268,0.039658,0,0,0,0
150.63,0.54903,2.2773,0.040368,0,0,0,0
152.63,0.56009,2.2863,0.040981,0,0,0,0
154.63,0.57141,2.2957,0.04156,0,0,0,0
156.63,0.58327,2.3043,0.042558,0,0,0,0
158.63,0.59411,2.313,0.043459,0,0,0,0
160.63,0.6055,2.3217,0.043845,0,0,0,0
162.63,0.61741,2.3307,0.044615,0,0,0,0
164.63,0.62811,2.339,0.045161,0,0,0,0
166.63,0.64005,2.347,0.046091,0,0,0,0
168.63,0.65126,2.355,0.04686,0,0,0,0
170.63,0.66249,2.3633,0.047725,0,0,0,0
172.63,0.6744,2.371,0.048269,0,0,0,0
174.63,0.68563,2.3786,0.048941,0,0,0,0
176.63,0.69704,2.387,0.049931,0,0,0,0
178.63,0.70902,2.394,0.050793,0,0,0,0
180.63,0.72009,2.402,0.051367,0,0,0,0
182.63,0.73215,2.409,0.052228,0,0,0,0
184.63,0.74389,2.4167,0.052897,0,0,0,0
186.63,0.75445,2.424,0.053725,0,0,0,0
188.63,0.76628,2.431,0.054552,0,0,0,0
190.63,0.77812,2.438,0.055315,0,0,0,0
192.63,0.78968,2.445,0.056235,0,0,0,0
194.63,0.80161,2.452,0.056996,0,0,0,0
196.63,0.81222,2.4587,0.057789,0,0,0,0
198.63,0.82412,2.4657,0.058675,0,0,0,0
200.63,0.83615,2.472,0.05934,0,0,0,0
202.63,0.84729,2.4787,0.060131,0,0,0,0
204.63,0.8592,2.4853,0.060921,0,0,0,0
206.63,0.87063,2.4917,0.061711,0,0,0,0
208.63,0.88218,2.4977,0.062594,0,0,0,0
210.63,0.89472,2.504,0.063476,0,0,0,0
212.63,0.90555,2.5103,0.064295,0,0,0,0
214.63,0.91779,2.5163,0.06524,0,0,0,0
216.63,0.92962,2.5223,0.066056,0,0,0,0
218.63,0.94061,2.5283,0.067061,0,0,0,0
220.63,0.95277,2.5343,0.067972,0,0,0,0
222.63,0.96447,2.5403,0.06885,0,0,0,0
224.63,0.97576,2.5457,0.069664,0,0,0,0
226.63,0.98812,2.551,0.070791,0,0,0,0
228.63,0.99922,2.5567,0.071573,0,0,0,0
230.63,1.0108,2.5627,0.072729,0,0,0,0
232.63,1.0233,2.568,0.073727,0,0,0,0
234.63,1.0343,2.5734,0.074631,0,0,0,0
236.63,1.0461,2.5787,0.075534,0,0,0,0
238.63,1.0583,2.584,0.076717,0,0,0,0
240.63,1.0695,2.589,0.077804,0,0,0,0
242.63,1.0818,2.594,0.078953,0,0,0,0
244.63,1.0932,2.599,0.079914,0,0,0,0
246.63,1.105,2.604,0.080751,0,0,0,0
248.63,1.1172,2.609,0.081803,0,0,0,0
250.63,1.1285,2.614,0.082978,0,0,0,0
252.63,1.1405,2.618,0.083997,0,0,0,0
254.63,1.152,2.623,0.085201,0,0,0,0
256.63,1.1633,2.628,0.086156,0,0,0,0
258.63,1.1756,2.6327,0.087233,0,0,0,0
260.63,1.1871,2.6366,0.088279,0,0,0,0
262.63,1.1986,2.641,0.089754,0,0,0,0
264.63,1.2106,2.6457,0.090888,0,0,0,0
266.63,1.2222,2.65,0.092205,0,0,0,0
268.63,1.2341,2.654,0.093367,0,0,0,0
270.63,1.2462,2.658,0.09453,0,0,0,0
272.63,1.2575,2.662,0.095782,0,0,0,0
274.63,1.2699,2.666,0.097092,0,0,0,0
276.63,1.2816,2.67,0.098523,0,0,0,0
278.63,1.2932,2.674,0.099862,0,0,0,0
280.63,1.3058,2.678,0.10095,0,0,0,0
282.63,1.3173,2.6817,0.1022,0,0,0,0
284.63,1.3296,2.685,0.10389,0,0,0,0
286.63,1.3419,2.689,0.10526,0,0,0,0
288.63,1.3534,2.692,0.1067,0,0,0,0
290.63,1.366,2.696,0.10806,0,0,0,0
292.63,1.3781,2.699,0.10948,0,0,0,0
294.63,1.3899,2.7023,0.11125,0,0,0,0
296.63,1.4026,2.7053,0.11284,0,0,0,0
298.63,1.414,2.7087,0.11449,0,0,0,0
300.63,1.4263,2.7117,0.11604,0,0,0,0
302.63,1.4388,2.715,0.11781,0,0,0,0
304.63,1.4504,2.717,0.11966,0,0,0,0
306.63,1.4634,2.7203,0.12108,0,0,0,0
308.63,1.4749,2.723,0.12296,0,0,0,0
310.63,1.4871,2.7257,0.12506,0,0,0,0
312.63,1.5005,2.7283,0.12678,0,0,0,0
314.63,1.5117,2.7307,0.12849,0,0,0,0
316.63,1.5247,2.733,0.13076,0,0,0,0
318.63,1.537,2.7357,0.13288,0,0,0,0
320.63,1.5488,2.7377,0.13479,0,0,0,0
322.63,1.5619,2.7397,0.13696,0,0,0,0
324.63,1.5739,2.7417,0.13942,0,0,0,0
326.63,1.5865,2.7433,0.14175,0,0,0,0
328.63,1.5994,2.745,0.14417,0,0,0,0
330.63,1.6115,2.7467,0.14649,0,0,0,0
332.63,1.6243,2.7483,0.14918,0,0,0,0
334.63,1.6366,2.7497,0.15178,0,0,0,0
336.63,1.6492,2.751,0.15446,0,0,0,0
338.63,1.6622,2.7513,0.15748,0,0,0,0
340.63,1.6744,2.753,0.1606,0,0,0,0
342.63,1.6877,2.7537,0.16354,0,0,0,0
344.63,1.7001,2.7537,0.16701,0,0,0,0
346.63,1.7129,2.754,0.17047,0,0,0,0
348.63,1.7264,2.754,0.174,0,0,0,0
350.63,1.739,2.754,0.17769,0,0,0,0
352.63,1.7524,2.754,0.18201,0,0,0,0
354.63,1.7655,2.753,0.18614,0,0,0,0
356.63,1.7781,2.752,0.19059,0,0,0,0
358.63,1.7919,2.7507,0.19508,0,0,0,0
360.63,1.8046,2.7487,0.19998,0,0,0,0
362.63,1.8184,2.746,0.20508,0,0,0,0
364.63,1.8318,2.744,0.21048,0,0,0,0
366.63,1.8449,2.7407,0.21604,0,0,0,0
368.63,1.8589,2.737,0.22195,0,0,0,0
370.63,1.8719,2.732,0.22792,0,0,0,0
372.63,1.886,2.7273,0.23424,0,0,0,0
374.63,1.8993,2.721,0.24088,0,0,0,0
376.63,1.9129,2.714,0.2473,0,0,0,0
378.63,1.9272,2.706,0.25415,0,0,0,0
380.63,1.9405,2.6977,0.26128,0,0,0,0
382.63,1.9548,2.688,0.26862,0,0,0,0
384.63,1.9687,2.6777,0.27599,0,0,0,0
386.63,1.9827,2.665,0.28367,0,0,0,0
388.63,1.9975,2.6517,0.29161,0,0,0,0
390.63,2.0114,2.637,0.29943,0,0,0,0
392.63,2.0264,2.621,0.30768,0,0,0,0
394.63,2.0407,2.6033,0.31596,0,0,0,0
396.63,2.0561,2.584,0.32466,0,0,0,0
398.63,2.0712,2.5637,0.33302,0,0,0,0
400.63,2.0863,2.5396,0.34208,0,0,0,0
402.63,2.1019,2.5146,0.35119,0,0,0,0
404.63,2.1171,2.4871,0.36039,0,0,0,0
406.63,2.1332,2.4576,0.37017,0,0,0,0
408.63,2.149,2.423,0.38021,0,0,0,0
410.63,2.1658,2.3831,0.39112,0,0,0,0
412.13,2.1796,2.3419,0.40048,0,0,0,0

File: NT6_45_1.csv
Time[s],Displacement[mm],Force[kN],AxStrain_1,AxStrain_2,Thickness[mm],OuterWidth[mm],InnerWidth[mm]
0.54,0,-0.0049405,0,0,1.1176,20,9.9828
2.54,0.001484,0.063432,-7.9003e-05,0,0,0,0
4.54,0.002411,0.14043,-0.00010101,0,0,0,0
6.54,0.002662,0.19657,-4.3001e-05,0,0,0,0
8.54,0.003627,0.24714,0.00019798,0,0,0,0
10.54,0.005044,0.30514,7.3997e-05,0,0,0,0
12.54,0.006348,0.36215,0.00019498,0,0,0,0
14.54,0.007104,0.42215,-7.4003e-05,0,0,0,0
16.54,0.008041,0.48085,5.3999e-05,0,0,0,0
18.54,0.009028,0.54285,0.00023497,0,0,0,0
20.54,0.010189,0.60343,0.00017798,0,0,0,0
22.54,0.012096,0.66615,0.00025497,0,0,0,0
24.54,0.013677,0.728,0.00025897,0,0,0,0
26.54,0.014799,0.79014,0.00022797,0,0,0,0
28.54,0.015551,0.85385,0.00022198,0,0,0,0
30.54,0.016984,0.91486,0.00027196,0,0,0,0
32.54,0.018871,0.97686,0.00052686,0,0,0,0
34.54,0.020902,1.0369,0.00061381,0,0,0,0
36.54,0.022477,1.0979,0.00061081,0,0,0,0
38.54,0.02379,1.1569,0.00053386,0,0,0,0
40.54,0.02523,1.2156,0.00049388,0,0,0,0
42.54,0.027506,1.2717,0.00079169,0,0,0,0
44.54,0.030199,1.3259,0.00097652,0,0,0,0
46.54,0.033747,1.3744,0.0019251,0,0,0,0
48.54,0.038693,1.412,0.0028759,0,0,0,0
50.54,0.045474,1.4463,0.0033185,0,0,0,0
52.54,0.053078,1.4767,0.0045516,0,0,0,0
54.54,0.059984,1.5046,0.0060049,0,0,0,0
56.54,0.06786,1.5313,0.0070958,0,0,0,0
58.54,0.076404,1.5563,0.0079751,0,0,0,0
60.54,0.08436,1.5797,0.0084284,0,0,0,0
62.54,0.092737,1.6021,0.0091133,0,0,0,0
64.54,0.10224,1.6237,0.010517,0,0,0,0
66.54,0.11089,1.644,0.011887,0,0,0,0
68.54,0.11988,1.664,0.012507,0,0,0,0
70.54,0.13006,1.683,0.012889,0,0,0,0
72.54,0.13933,1.702,0.013492,0,0,0,0
74.54,0.14868,1.7203,0.014667,0,0,0,0
76.54,0.15887,1.7374,0.015824,0,0,0,0
78.54,0.16825,1.7547,0.016588,0,0,0,0
80.54,0.1782,1.7717,0.017176,0,0,0,0
82.54,0.18885,1.788,0.017884,0,0,0,0
84.54,0.19859,1.804,0.018807,0,0,0,0
86.54,0.20859,1.82,0.019937,0,0,0,0
88.54,0.21949,1.835,0.020548,0,0,0,0
90.54,0.22939,1.8503,0.021265,0,0,0,0
92.54,0.24011,1.865,0.022005,0,0,0,0
94.54,0.2507,1.88,0.022838,0,0,0,0
96.54,0.26094,1.894,0.023712,0,0,0,0
98.54,0.27174,1.908,0.024599,0,0,0,0
100.54,0.28217,1.9217,0.025143,0,0,0,0
102.54,0.2922,1.935,0.026115,0,0,0,0
104.54,0.3031,1.9483,0.026844,0,0,0,0
106.54,0.31393,1.961,0.027736,0,0,0,0
108.54,0.32417,1.974,0.028481,0,0,0,0
110.54,0.33535,1.986,0.029459,0,0,0,0
112.54,0.34619,1.9987,0.029932,0,0,0,0
114.54,0.35635,2.0103,0.030746,0,0,0,0
116.54,0.36819,2.022,0.031657,0,0,0,0
118.54,0.37855,2.0337,0.032502,0,0,0,0
120.54,0.38934,2.0453,0.033282,0,0,0,0
122.54,0.40091,2.057,0.033932,0,0,0,0
124.54,0.41145,2.0677,0.03484,0,0,0,0
126.54,0.4226,2.079,0.035456,0,0,0,0
128.54,0.43415,2.089,0.03646,0,0,0,0
130.54,0.44466,2.1,0.037075,0,0,0,0
132.54,0.45665,2.1103,0.037819,0,0,0,0
134.54,0.46748,2.1206,0.038692,0,0,0,0
136.54,0.47835,2.1307,0.03966,0,0,0,0
138.54,0.4902,2.1413,0.040627,0,0,0,0
140.54,0.5011,2.1506,0.041047,0,0,0,0
142.54,0.51225,2.1603,0.04182,0,0,0,0
144.54,0.52426,2.17,0.042721,0,0,0,0
146.54,0.53487,2.1793,0.043879,0,0,0,0
148.54,0.54664,2.1887,0.044713,0,0,0,0
150.54,0.55842,2.197,0.045356,0,0,0,0
152.54,0.56895,2.2067,0.045934,0,0,0,0
154.54,0.58108,2.215,0.047024,0,0,0,0
156.54,0.59235,2.224,0.048144,0,0,0,0
158.54,0.60357,2.2323,0.048912,0,0,0,0
160.54,0.6154,2.2407,0.049487,0,0,0,0
162.54,0.62662,2.249,0.050414,0,0,0,0
164.54,0.63827,2.2573,0.051403,0,0,0,0
166.54,0.65041,2.266,0.0522,0,0,0,0
168.54,0.66128,2.273,0.053218,0,0,0,0
170.54,0.6731,2.281,0.053887,0,0,0,0
172.54,0.68499,2.289,0.054809,0,0,0,0
174.54,0.69594,2.2966,0.055604,0,0,0,0
176.54,0.7084,2.304,0.056556,0,0,0,0
178.54,0.71962,2.311,0.057413,0,0,0,0
180.54,0.73072,2.319,0.058173,0,0,0,0
182.54,0.74304,2.326,0.059314,0,0,0,0
184.54,0.75422,2.333,0.060262,0,0,0,0
186.54,0.7662,2.3403,0.061116,0,0,0,0
188.54,0.77822,2.347,0.062126,0,0,0,0
190.54,0.78927,2.3537,0.062851,0,0,0,0
192.54,0.80167,2.3603,0.063924,0,0,0,0
194.54,0.81337,2.3673,0.064773,0,0,0,0
196.54,0.82445,2.3737,0.06578,0,0,0,0
198.54,0.83712,2.3803,0.066691,0,0,0,0
200.54,0.8488,2.3863,0.067664,0,0,0,0
202.54,0.86037,2.3927,0.068699,0,0,0,0
204.54,0.87282,2.399,0.069672,0,0,0,0
206.54,0.88399,2.4057,0.070767,0,0,0,0
208.54,0.89673,2.4113,0.071642,0,0,0,0
210.54,0.90876,2.417,0.072642,0,0,0,0
212.54,0.92031,2.4233,0.073641,0,0,0,0
214.54,0.9331,2.429,0.074577,0,0,0,0
216.54,0.94462,2.4353,0.075668,0,0,0,0
218.54,0.95651,2.4403,0.076787,0,0,0,0
220.54,0.96872,2.4463,0.077657,0,0,0,0
222.54,0.98001,2.4517,0.078652,0,0,0,0
224.54,0.99282,2.4577,0.079768,0,0,0,0
226.54,1.0047,2.4627,0.081039,0,0,0,0
228.54,1.0164,2.468,0.082153,0,0,0,0
230.54,1.0289,2.4733,0.083112,0,0,0,0
232.54,1.0404,2.4787,0.084162,0,0,0,0
234.54,1.0527,2.484,0.085273,0,0,0,0
236.54,1.0653,2.4886,0.086568,0,0,0,0
238.54,1.0767,2.4937,0.087645,0,0,0,0
240.54,1.0891,2.4987,0.088659,0,0,0,0
242.54,1.1015,2.5037,0.089949,0,0,0,0
244.54,1.1131,2.508,0.090993,0,0,0,0
246.54,1.1259,2.513,0.092095,0,0,0,0
248.54,1.1374,2.5176,0.093564,0,0,0,0
250.54,1.1498,2.522,0.094543,0,0,0,0
252.54,1.162,2.527,0.095946,0,0,0,0
254.54,1.1734,2.531,0.097105,0,0,0,0
256.54,1.1858,2.5353,0.098354,0,0,0,0
258.54,1.1979,2.54,0.09954,0,0,0,0
260.54,1.2097,2.5444,0.10079,0,0,0,0
262.54,1.2221,2.548,0.10209,0,0,0,0
264.54,1.2338,2.552,0.1033,0,0,0,0
266.54,1.2458,2.5566,0.10466,0,0,0,0
268.54,1.2581,2.5604,0.1059,0,0,0,0
270.54,1.2697,2.564,0.10708,0,0,0,0
272.54,1.2823,2.568,0.10853,0,0,0,0
274.54,1.2941,2.572,0.10991,0,0,0,0
276.54,1.306,2.576,0.1113,0,0,0,0
278.54,1.3185,2.579,0.11268,0,0,0,0
280.54,1.3302,2.583,0.11409,0,0,0,0
282.54,1.3425,2.586,0.11549,0,0,0,0
284.54,1.3551,2.59,0.11714,0,0,0,0
286.54,1.3668,2.593,0.11863,0,0,0,0
288.54,1.3796,2.5964,0.12015,0,0,0,0
290.54,1.3913,2.6,0.12149,0,0,0,0
292.54,1.4034,2.603,0.12289,0,0,0,0
294.54,1.4164,2.6063,0.12476,0,0,0,0
296.54,1.4281,2.6093,0.12662,0,0,0,0
298.54,1.4405,2.6124,0.12804,0,0,0,0
300.54,1.4526,2.6157,0.12946,0,0,0,0
302.54,1.4643,2.6183,0.1312,0,0,0,0
304.54,1.4775,2.621,0.13281,0,0,0,0
306.54,1.4893,2.624,0.13467,0,0,0,0
308.54,1.5017,2.6263,0.13642,0,0,0,0
310.54,1.5141,2.6293,0.13818,0,0,0,0
312.54,1.5265,2.632,0.14005,0,0,0,0
314.54,1.5391,2.6343,0.14198,0,0,0,0
316.54,1.5512,2.637,0.14387,0,0,0,0
318.54,1.5633,2.6393,0.14579,0,0,0,0
320.54,1.5762,2.6413,0.14773,0,0,0,0
322.54,1.5883,2.6437,0.14984,0,0,0,0
324.54,1.6011,2.646,0.1518,0,0,0,0
326.54,1.6137,2.648,0.15371,0,0,0,0
328.54,1.6256,2.6503,0.15572,0,0,0,0
330.54,1.6387,2.6517,0.15801,0,0,0,0
332.54,1.651,2.6543,0.16031,0,0,0,0
334.54,1.6632,2.6557,0.16262,0,0,0,0
336.54,1.676,2.6573,0.16507,0,0,0,0
338.54,1.6885,2.6587,0.16749,0,0,0,0
340.54,1.7016,2.6603,0.16982,0,0,0,0
342.54,1.7139,2.6617,0.17228,0,0,0,0
344.54,1.7262,2.6633,0.17471,0,0,0,0
346.54,1.7395,2.6647,0.1775,0,0,0,0
348.54,1.7516,2.6653,0.18039,0,0,0,0
350.54,1.7647,2.666,0.1831,0,0,0,0
352.54,1.7776,2.6677,0.18584,0,0,0,0
354.54,1.7902,2.668,0.18909,0,0,0,0
356.54,1.8034,2.669,0.19209,0,0,0,0
358.54,1.8157,2.6697,0.19519,0,0,0,0
360.54,1.829,2.67,0.19863,0,0,0,0
362.54,1.842,2.67,0.20196,0,0,0,0
364.54,1.8546,2.67,0.20577,0,0,0,0
366.54,1.8682,2.67,0.20954,0,0,0,0
368.54,1.8806,2.67,0.21291,0,0,0,0
370.54,1.8937,2.67,0.21686,0,0,0,0
372.54,1.907,2.6693,0.22121,0,0,0,0
374.54,1.9197,2.6683,0.22529,0,0,0,0
376.54,1.9335,2.6673,0.22959,0,0,0,0
378.54,1.9461,2.666,0.23406,0,0,0,0
380.54,1.9594,2.664,0.23878,0,0,0,0
382.54,1.9728,2.662,0.24377,0,0,0,0
384.54,1.9858,2.66,0.24907,0,0,0,0
386.54,1.9997,2.657,0.25405,0,0,0,0
388.54,2.0126,2.654,0.25971,0,0,0,0
390.54,2.0261,2.6503,0.2656,0,0,0,0
392.54,2.04,2.6463,0.27156,0,0,0,0
394.54,2.0531,2.6417,0.27776,0,0,0,0
396.54,2.0674,2.6363,0.28389,0,0,0,0
398.54,2.0808,2.6297,0.29039,0,0,0,0
400.54,2.0947,2.6224,0.2973,0,0,0,0
402.54,2.109,2.6143,0.30386,0,0,0,0
404.54,2.1225,2.605,0.311,0,0,0,0
406.54,2.1373,2.5947,0.31838,0,0,0,0
408.54,2.1511,2.5823,0.32592,0,0,0,0
410.54,2.1659,2.5697,0.33362,0,0,0,0
412.54,2.1802,2.554,0.34152,0,0,0,0
414.54,2.1944,2.5377,0.34967,0,0,0,0
416.54,2.2096,2.5186,0.35773,0,0,0,0
418.54,2.2239,2.4984,0.36615,0,0,0,0
420.54,2.2396,2.475,0.37477,0,0,0,0
422.54,2.2548,2.4483,0.38355,0,0,0,0
424.54,2.2705,2.4181,0.39311,0,0,0,0
426.04,2.283,2.3877,0.40101,0,0,0,0

File: NT6_45_3.csv
Time[s],Displacement[mm],Force[kN],AxStrain_1,AxStrain_2,Thickness[mm],OuterWidth[mm],InnerWidth[mm]
0.62,0,-0.0050318,0,0,1.117,20,9.9496
2.62,0.001252,0.06471,0.00014699,0,0,0,0
4.62,0.002458,0.14014,0.00025797,0,0,0,0
6.62,0.003495,0.21315,0.00015999,0,0,0,0
8.62,0.003895,0.25686,8.9996e-05,0,0,0,0
10.62,0.005174,0.31043,5.1999e-05,0,0,0,0
12.62,0.006373,0.36657,2.4e-05,0,0,0,0
14.62,0.007188,0.42714,0.00026896,0,0,0,0
16.62,0.007826,0.485,0.00030195,0,0,0,0
18.62,0.008783,0.546,0.00018798,0,0,0,0
20.62,0.010018,0.60714,0.00018098,0,0,0,0
22.62,0.011324,0.67014,0.00031595,0,0,0,0
24.62,0.01313,0.73086,0.00046689,0,0,0,0
26.62,0.014356,0.792,0.00036593,0,0,0,0
28.62,0.015141,0.85429,0.00038293,0,0,0,0
30.62,0.016387,0.91315,0.00037893,0,0,0,0
32.62,0.017834,0.97485,0.0004359,0,0,0,0
34.62,0.019993,1.032,0.00027496,0,0,0,0
36.62,0.02199,1.0921,0.0006378,0,0,0,0
38.62,0.023233,1.1481,0.00053686,0,0,0,0
40.62,0.024757,1.2031,0.00047988,0,0,0,0
42.62,0.026758,1.2579,0.00064079,0,0,0,0
44.62,0.029702,1.309,0.00091258,0,0,0,0
46.62,0.033227,1.3567,0.0014659,0,0,0,0
48.62,0.037534,1.3956,0.0024809,0,0,0,0
50.62,0.043557,1.4299,0.0034022,0,0,0,0
52.62,0.051272,1.4603,0.0040508,0,0,0,0
54.62,0.058365,1.4886,0.0049467,0,0,0,0
56.62,0.065852,1.5137,0.0062117,0,0,0,0
58.62,0.074601,1.5381,0.0076923,0,0,0,0
60.62,0.083061,1.5616,0.0081715,0,0,0,0
62.62,0.091279,1.5834,0.0087248,0,0,0,0
64.62,0.10027,1.6047,0.0094631,0,0,0,0
66.62,0.10937,1.6246,0.01063,0,0,0,0
68.62,0.11772,1.6447,0.012127,0,0,0,0
70.62,0.12743,1.663,0.012797,0,0,0,0
72.62,0.13749,1.682,0.013115,0,0,0,0
74.62,0.14661,1.6997,0.013724,0,0,0,0
76.62,0.15632,1.7167,0.014913,0,0,0,0
78.62,0.16673,1.7336,0.016189,0,0,0,0
80.62,0.17598,1.75,0.017044,0,0,0,0
82.62,0.18629,1.7667,0.017348,0,0,0,0
84.62,0.1968,1.782,0.018001,0,0,0,0
86.62,0.20634,1.7984,0.018865,0,0,0,0
88.62,0.21716,1.8133,0.020146,0,0,0,0
90.62,0.22743,1.828,0.020916,0,0,0,0
92.62,0.23742,1.8427,0.021577,0,0,0,0
94.62,0.24815,1.8574,0.022174,0,0,0,0
96.62,0.25874,1.8713,0.022982,0,0,0,0
98.62,0.26922,1.8847,0.023842,0,0,0,0
100.62,0.27988,1.899,0.024868,0,0,0,0
102.62,0.29062,1.9117,0.025572,0,0,0,0
104.62,0.30054,1.925,0.026283,0,0,0,0
106.62,0.31187,1.9373,0.02722,0,0,0,0
108.62,0.32206,1.95,0.027842,0,0,0,0
110.62,0.33259,1.9624,0.028762,0,0,0,0
112.62,0.34391,1.9747,0.029376,0,0,0,0
114.62,0.35441,1.9866,0.03024,0,0,0,0
116.62,0.36538,1.9983,0.031011,0,0,0,0
118.62,0.37651,2.0097,0.031956,0,0,0,0
120.62,0.38676,2.021,0.032411,0,0,0,0
122.62,0.39786,2.0323,0.033223,0,0,0,0
124.62,0.409,2.043,0.033938,0,0,0,0
126.62,0.41953,2.0543,0.03488,0,0,0,0
128.62,0.43115,2.0647,0.035819,0,0,0,0
130.62,0.44212,2.0757,0.036499,0,0,0,0
132.62,0.45323,2.086,0.037146,0,0,0,0
134.62,0.4652,2.096,0.037987,0,0,0,0
136.62,0.47565,2.1057,0.03873,0,0,0,0
138.62,0.48675,2.1157,0.039827,0,0,0,0
140.62,0.4986,2.1257,0.040635,0,0,0,0
142.62,0.50926,2.135,0.041569,0,0,0,0
144.62,0.52093,2.1447,0.042052,0,0,0,0
146.62,0.53239,2.1537,0.04305,0,0,0,0
148.62,0.54339,2.163,0.044079,0,0,0,0
150.62,0.55516,2.172,0.045042,0,0,0,0
152.62,0.56636,2.1813,0.045972,0,0,0,0
154.62,0.57743,2.1897,0.046357,0,0,0,0
156.62,0.58986,2.1983,0.046967,0,0,0,0
158.62,0.60086,2.207,0.048119,0,0,0,0
160.62,0.61233,2.2153,0.049302,0,0,0,0
162.62,0.62437,2.2233,0.050101,0,0,0,0
164.62,0.63554,2.232,0.050708,0,0,0,0
166.62,0.64761,2.24,0.05141,0,0,0,0
168.62,0.65897,2.2473,0.052399,0,0,0,0
170.62,0.67029,2.2553,0.053578,0,0,0,0
172.62,0.68223,2.263,0.054405,0,0,0,0
174.62,0.69375,2.2707,0.055327,0,0,0,0
176.62,0.70513,2.2776,0.05574,0,0,0,0
178.62,0.71708,2.2853,0.056693,0,0,0,0
180.62,0.72865,2.2927,0.057993,0,0,0,0
182.62,0.74024,2.3,0.058722,0,0,0,0
184.62,0.75199,2.3067,0.059545,0,0,0,0
186.62,0.76293,2.314,0.0604,0,0,0,0
188.62,0.7751,2.3207,0.061316,0,0,0,0
190.62,0.78676,2.3277,0.062232,0,0,0,0
192.62,0.79787,2.334,0.06324,0,0,0,0
194.62,0.81033,2.3403,0.064062,0,0,0,0
196.62,0.82155,2.3473,0.065068,0,0,0,0
198.62,0.83296,2.3537,0.065949,0,0,0,0
200.62,0.84549,2.36,0.067081,0,0,0,0
202.62,0.85663,2.3657,0.068023,0,0,0,0
204.62,0.86901,2.3723,0.068933,0,0,0,0
206.62,0.88109,2.379,0.069748,0,0,0,0
208.62,0.89194,2.3847,0.070781,0,0,0,0
210.62,0.9046,2.3903,0.072156,0,0,0,0
212.62,0.91594,2.3963,0.072938,0,0,0,0
214.62,0.92764,2.4023,0.073842,0,0,0,0
216.62,0.94023,2.4077,0.074685,0,0,0,0
218.62,0.95161,2.4137,0.075931,0,0,0,0
220.62,0.96382,2.4197,0.076958,0,0,0,0
222.62,0.97564,2.425,0.07814,0,0,0,0
224.62,0.98731,2.43,0.079196,0,0,0,0
226.62,0.99932,2.4357,0.080065,0,0,0,0
228.62,1.0116,2.4407,0.081149,0,0,0,0
230.62,1.0232,2.446,0.082295,0,0,0,0
232.62,1.0351,2.4513,0.083315,0,0,0,0
234.62,1.047,2.456,0.084519,0,0,0,0
236.62,1.0592,2.461,0.085445,0,0,0,0
238.62,1.0717,2.4663,0.086679,0,0,0,0
240.62,1.0829,2.471,0.087726,0,0,0,0
242.62,1.096,2.476,0.088804,0,0,0,0
244.62,1.1076,2.481,0.08997,0,0,0,0
246.62,1.1193,2.4853,0.091077,0,0,0,0
248.62,1.1319,2.49,0.092364,0,0,0,0
250.62,1.1434,2.495,0.093436,0,0,0,0
252.62,1.1555,2.499,0.094599,0,0,0,0
254.62,1.1676,2.5037,0.095851,0,0,0,0
256.62,1.179,2.508,0.097131,0,0,0,0
258.62,1.1912,2.512,0.098168,0,0,0,0
260.62,1.2034,2.517,0.099567,0,0,0,0
262.62,1.215,2.52,0.10094,0,0,0,0
264.62,1.2276,2.524,0.10215,0,0,0,0
266.62,1.2385,2.529,0.10318,0,0,0,0
268.62,1.2514,2.533,0.10454,0,0,0,0
270.62,1.2642,2.5367,0.10606,0,0,0,0
272.62,1.2747,2.5407,0.10729,0,0,0,0
274.62,1.2868,2.544,0.10889,0,0,0,0
276.62,1.2993,2.548,0.10998,0,0,0,0
278.62,1.3111,2.552,0.11103,0,0,0,0
280.62,1.3235,2.555,0.11247,0,0,0,0
282.62,1.3352,2.559,0.11409,0,0,0,0
284.62,1.3475,2.5623,0.11538,0,0,0,0
286.62,1.3595,2.566,0.11688,0,0,0,0
288.62,1.3713,2.5697,0.11855,0,0,0,0
290.62,1.3837,2.5727,0.11977,0,0,0,0
292.62,1.3956,2.576,0.12114,0,0,0,0
294.62,1.408,2.579,0.12269,0,0,0,0
296.62,1.4204,2.582,0.1245,0,0,0,0
298.62,1.4319,2.585,0.12616,0,0,0,0
300.62,1.4445,2.5884,0.12764,0,0,0,0
302.62,1.4566,2.5913,0.12908,0,0,0,0
304.62,1.4684,2.5943,0.13053,0,0,0,0
306.62,1.4809,2.597,0.1325,0,0,0,0
308.62,1.4929,2.6,0.13415,0,0,0,0
310.62,1.5051,2.6023,0.13591,0,0,0,0
312.62,1.5174,2.6053,0.13752,0,0,0,0
314.62,1.5291,2.6077,0.13931,0,0,0,0
316.62,1.5419,2.61,0.14117,0,0,0,0
318.62,1.5539,2.6127,0.14327,0,0,0,0
320.62,1.5659,2.615,0.14479,0,0,0,0
322.62,1.5794,2.6177,0.14673,0,0,0,0
324.62,1.5908,2.6193,0.14873,0,0,0,0
326.62,1.6035,2.6217,0.15087,0,0,0,0
328.62,1.6161,2.624,0.15284,0,0,0,0
330.62,1.6279,2.6257,0.15479,0,0,0,0
332.62,1.6408,2.6283,0.15687,0,0,0,0
334.62,1.6528,2.6297,0.15899,0,0,0,0
336.62,1.6653,2.6317,0.16122,0,0,0,0
338.62,1.6782,2.6333,0.16339,0,0,0,0
340.62,1.6898,2.635,0.1657,0,0,0,0
342.62,1.7032,2.6367,0.16826,0,0,0,0
344.62,1.7156,2.6383,0.17072,0,0,0,0
346.62,1.7276,2.6397,0.17316,0,0,0,0
348.62,1.7405,2.641,0.17547,0,0,0,0
350.62,1.7529,2.642,0.17787,0,0,0,0
352.62,1.7661,2.6437,0.1807,0,0,0,0
354.62,1.7787,2.644,0.18373,0,0,0,0
356.62,1.7911,2.6453,0.18658,0,0,0,0
358.62,1.8048,2.646,0.18953,0,0,0,0
360.62,1.817,2.647,0.19238,0,0,0,0
362.62,1.8301,2.6477,0.19562,0,0,0,0
364.62,1.8431,2.6476,0.19899,0,0,0,0
366.62,1.8554,2.648,0.20226,0,0,0,0
368.62,1.869,2.648,0.20593,0,0,0,0
370.62,1.8814,2.648,0.20945,0,0,0,0
372.62,1.8945,2.648,0.21335,0,0,0,0
374.62,1.9077,2.6477,0.21723,0,0,0,0
376.62,1.9202,2.647,0.2212,0,0,0,0
378.62,1.9335,2.6463,0.22518,0,0,0,0
380.62,1.9464,2.6453,0.2297,0,0,0,0
382.62,1.9594,2.644,0.23426,0,0,0,0
384.62,1.9736,2.6427,0.23872,0,0,0,0
386.62,1.9858,2.6407,0.24356,0,0,0,0
388.62,1.9997,2.6387,0.24871,0,0,0,0
390.62,2.0126,2.636,0.25394,0,0,0,0
392.62,2.0258,2.633,0.25938,0,0,0,0
394.62,2.0398,2.6296,0.26489,0,0,0,0
396.62,2.0529,2.626,0.271,0,0,0,0
398.62,2.0669,2.621,0.27716,0,0,0,0
400.62,2.0805,2.6157,0.28338,0,0,0,0
402.62,2.0945,2.6097,0.28978,0,0,0,0
404.62,2.1084,2.6027,0.29636,0,0,0,0
406.62,2.1224,2.595,0.3033,0,0,0,0
408.62,2.1363,2.586,0.31047,0,0,0,0
410.62,2.15,2.576,0.31779,0,0,0,0
412.62,2.1643,2.565,0.32549,0,0,0,0
414.62,2.179,2.552,0.33275,0,0,0,0
416.62,2.1932,2.5373,0.3406,0,0,0,0
418.62,2.2081,2.5217,0.34869,0,0,0,0
420.62,2.2221,2.5037,0.35693,0,0,0,0
422.62,2.2374,2.4837,0.365,0,0,0,0
424.62,2.2526,2.4616,0.37374,0,0,0,0
426.62,2.2675,2.436,0.38248,0,0,0,0
428.62,2.2835,2.4081,0.39113,0,0,0,0
430.12,2.295,2.3809,0.39806,0,0,0,0