Folder: ethz/lab_data/AA6014-T4_results/DATA

Note: README.md
**MODELLING AND CALIBRATING A POLYN YIELD SURFACE FUNCTION**

---

In the context of my research assistant internship at ETH Zurich, I have to implement and find an operationnal strategy to calibrate a yield surface function based on the polyN model which is a homogenous polynomial of degree N.

To make the calibration operationnal please copy paste a folder "{material}_results" containing the csv files for a given material in the lab_data directory and then change the parameters you want in the polyN_optimization/param.txt. Then run polyN_optimization/optimize_polyN.py. The coefficients of the polyN function will be accessible in the polyN_coeff.npy file.

File: CH_00_1.csv
Time[s],Displacement[mm],Force[kN],AxStrain_1,AxStrain_2,Thickness[mm],OuterWidth[mm],Diameter[mm]
0.58,0,-0.0053786,0,0,1.1255,19.962,5.2269
3.08,0.001681,0.091992,0.00010099,-2e-06,0,0,0
5.58,0.002718,0.18,0.00010599,0.00010999,0,0,0
8.09,0.003326,0.23915,5.4998e-05,0.00018798,0,0,0
10.59,0.004609,0.31257,9.7995e-05,0.00032195,0,0,0
13.09,0.005892,0.38743,0.00026896,0.00035894,0,0,0
15.59,0.006923,0.46214,0.00033894,0.00029896,0,0,0
18.09,0.007775,0.54071,0.0004429,0.00047289,0,0,0
20.59,0.008967,0.62115,0.00040592,0.0006278,0,0,0
23.09,0.010726,0.70285,0.00062081,0.00083565,0,0,0
25.59,0.012519,0.78314,0.00084864,0.0007717,0,0,0
28.09,0.01355,0.864,0.00058383,0.00091658,0,0,0
30.58,0.0145,0.94515,0.00086263,0.00098951,0,0,0
33.08,0.016229,1.0239,0.00092257,0.00095255,0,0,0
35.59,0.018438,1.1031,0.0012243,0.0012782,0,0,0
38.09,0.01965,1.1809,0.0012143,0.0011403,0,0,0
40.59,0.02066,1.2577,0.0013181,0.0013421,0,0,0
43.08,0.022158,1.3339,0.0013151,0.001386,0,0,0
45.59,0.024353,1.409,0.0016067,0.0017175,0,0,0
48.09,0.026049,1.4829,0.0021467,0.002009,0,0,0
50.58,0.027076,1.5563,0.0020489,0.0020389,0,0,0
53.08,0.028845,1.6291,0.002458,0.0022874,0,0,0
55.58,0.030883,1.7001,0.0029536,0.002836,0,0,0
58.08,0.0332,1.7719,0.0035457,0.0032348,0,0,0
60.58,0.035013,1.8399,0.0036663,0.0034182,0,0,0
63.08,0.038021,1.9076,0.004,0.0037061,0,0,0
65.58,0.041113,1.9686,0.0050363,0.0047059,0,0,0
68.08,0.04488,2.0264,0.0063717,0.0056112,0,0,0
70.58,0.050214,2.0767,0.0072288,0.0066816,0,0,0
73.08,0.057597,2.1217,0.0082112,0.0075425,0,0,0
75.58,0.064701,2.1623,0.0098979,0.0091401,0,0,0
78.08,0.072879,2.1986,0.012176,0.011356,0,0,0
80.58,0.082051,2.2337,0.013681,0.013061,0,0,0
83.08,0.090541,2.2661,0.014747,0.014326,0,0,0
85.58,0.10043,2.2973,0.01698,0.01596,0,0,0
88.08,0.11021,2.3276,0.019251,0.018343,0,0,0
90.58,0.11964,2.3567,0.020914,0.020187,0,0,0
93.08,0.13065,2.3837,0.022372,0.021679,0,0,0
95.58,0.14067,2.4117,0.024307,0.023268,0,0,0
98.08,0.15155,2.4373,0.026291,0.02527,0,0,0
100.58,0.16226,2.4626,0.027905,0.026957,0,0,0
103.08,0.1729,2.4874,0.029673,0.028554,0,0,0
105.58,0.18402,2.5114,0.031591,0.030481,0,0,0
108.08,0.194,2.5347,0.033531,0.032218,0,0,0
110.58,0.20479,2.5573,0.034806,0.033901,0,0,0
113.08,0.21514,2.5787,0.036804,0.03558,0,0,0
115.58,0.225,2.6,0.038528,0.037179,0,0,0
118.08,0.23667,2.6203,0.040238,0.038883,0,0,0
120.58,0.2464,2.6403,0.041946,0.040529,0,0,0
123.08,0.25716,2.6593,0.04349,0.042332,0,0,0
125.58,0.2672,2.6777,0.045,0.04378,0,0,0
128.08,0.27698,2.6953,0.046475,0.04516,0,0,0
130.58,0.28734,2.713,0.048236,0.046924,0,0,0
133.08,0.29676,2.729,0.049547,0.04846,0,0,0
135.58,0.3067,2.745,0.050952,0.049611,0,0,0
138.08,0.31606,2.7607,0.052227,0.050983,0,0,0
140.58,0.32484,2.7753,0.054073,0.052577,0,0,0
143.08,0.3348,2.79,0.055249,0.053628,0,0,0
145.58,0.34369,2.8036,0.056741,0.054963,0,0,0
148.08,0.35315,2.8177,0.057946,0.056265,0,0,0
150.58,0.36258,2.8307,0.059339,0.05766,0,0,0
153.08,0.37156,2.8443,0.060635,0.058864,0,0,0
155.58,0.38122,2.857,0.06193,0.060129,0,0,0
158.08,0.39019,2.8697,0.063444,0.061361,0,0,0
160.58,0.39838,2.882,0.064703,0.062655,0,0,0
163.08,0.40877,2.894,0.066055,0.064042,0,0,0
165.58,0.41729,2.906,0.067217,0.065081,0,0,0
168.08,0.42688,2.9173,0.068849,0.066558,0,0,0
170.58,0.43607,2.929,0.06982,0.067876,0,0,0
173.08,0.4451,2.9407,0.07104,0.069067,0,0,0
175.58,0.45509,2.952,0.07229,0.070195,0,0,0
178.08,0.4639,2.963,0.073787,0.071446,0,0,0
180.58,0.47306,2.9737,0.074972,0.072726,0,0,0
183.08,0.48253,2.9843,0.07603,0.074068,0,0,0
185.58,0.49069,2.995,0.077274,0.075065,0,0,0
188.08,0.50043,3.0054,0.078672,0.076216,0,0,0
190.58,0.50936,3.0153,0.079664,0.077709,0,0,0
193.08,0.51825,3.0253,0.080966,0.079136,0,0,0
195.58,0.52806,3.035,0.081894,0.080098,0,0,0
198.08,0.53655,3.0456,0.083223,0.081275,0,0,0
200.58,0.54595,3.0553,0.084551,0.082574,0,0,0
203.08,0.55528,3.065,0.085723,0.08384,0,0,0
205.58,0.56408,3.074,0.086769,0.085013,0,0,0
208.08,0.57341,3.084,0.088061,0.085999,0,0,0
210.58,0.58207,3.0937,0.089505,0.087384,0,0,0
213.08,0.59117,3.103,0.090671,0.088522,0,0,0
215.58,0.60101,3.112,0.091744,0.089597,0,0,0
218.08,0.6096,3.121,0.092968,0.090855,0,0,0
220.58,0.61924,3.1303,0.094405,0.092142,0,0,0
223.08,0.62854,3.1393,0.095626,0.093396,0,0,0
225.58,0.63703,3.1483,0.096815,0.094373,0,0,0
228.08,0.64673,3.157,0.09779,0.095686,0,0,0
230.58,0.65529,3.1657,0.09922,0.096784,0,0,0
233.08,0.66412,3.1747,0.10047,0.098002,0,0,0
235.58,0.67369,3.1833,0.10189,0.099402,0,0,0
238.08,0.68239,3.1917,0.10295,0.10031,0,0,0
240.58,0.69205,3.1997,0.10434,0.10186,0,0,0
243.08,0.70115,3.2087,0.1057,0.10304,0,0,0
245.58,0.71032,3.2173,0.10694,0.10452,0,0,0
248.08,0.72005,3.225,0.10845,0.1054,0,0,0
250.58,0.72845,3.2333,0.10953,0.10673,0,0,0
253.08,0.73754,3.2413,0.11092,0.10803,0,0,0
255.58,0.74654,3.2497,0.11221,0.10947,0,0,0
258.08,0.75514,3.2573,0.11359,0.11058,0,0,0
260.58,0.76494,3.2657,0.11476,0.11176,0,0,0
263.08,0.77347,3.273,0.11598,0.11311,0,0,0
265.58,0.78246,3.281,0.11733,0.11454,0,0,0
268.08,0.79173,3.2893,0.1187,0.11586,0,0,0
270.58,0.80053,3.2963,0.11989,0.11697,0,0,0
273.08,0.80959,3.304,0.12129,0.11831,0,0,0
275.58,0.81852,3.312,0.1226,0.11971,0,0,0
278.08,0.82715,3.3197,0.12387,0.12117,0,0,0
280.58,0.83661,3.3273,0.12512,0.12245,0,0,0
283.08,0.84551,3.3347,0.12675,0.1239,0,0,0
285.58,0.85515,3.342,0.12813,0.12544,0,0,0
288.08,0.86445,3.3493,0.12937,0.12663,0,0,0
290.58,0.87304,3.3563,0.13076,0.1279,0,0,0
293.08,0.88281,3.3647,0.13241,0.12943,0,0,0
295.58,0.89154,3.3717,0.13391,0.13097,0,0,0
298.08,0.90057,3.3783,0.1352,0.13208,0,0,0
300.58,0.90994,3.3853,0.13652,0.13349,0,0,0
303.08,0.91853,3.3923,0.13819,0.13496,0,0,0
305.58,0.92753,3.3997,0.13947,0.13643,0,0,0
308.08,0.937,3.4067,0.14081,0.13769,0,0,0
310.58,0.94562,3.4133,0.14253,0.13912,0,0,0
313.08,0.95499,3.42,0.14396,0.14064,0,0,0
315.58,0.96385,3.4273,0.14535,0.14224,0,0,0
318.08,0.97272,3.4343,0.14712,0.14355,0,0,0
320.58,0.98215,3.441,0.14857,0.14521,0,0,0
323.08,0.99058,3.4473,0.1501,0.14672,0,0,0
325.58,1.0002,3.4543,0.15172,0.14819,0,0,0
328.08,1.0093,3.4607,0.15342,0.1499,0,0,0
330.58,1.0184,3.467,0.15497,0.15146,0,0,0
333.08,1.0276,3.4737,0.15632,0.15293,0,0,0
335.58,1.0365,3.48,0.15799,0.15431,0,0,0
338.08,1.0456,3.4863,0.15982,0.15603,0,0,0
340.58,1.0548,3.4927,0.16102,0.15781,0,0,0
343.08,1.0633,3.499,0.16256,0.15882,0,0,0
345.58,1.0722,3.5053,0.16422,0.16022,0,0,0
348.08,1.0812,3.5113,0.1659,0.16208,0,0,0
350.58,1.0904,3.5177,0.1676,0.16393,0,0,0
353.08,1.0995,3.5243,0.16916,0.1651,0,0,0
355.58,1.1085,3.53,0.17089,0.16669,0,0,0
358.08,1.1177,3.5356,0.17267,0.16874,0,0,0
360.58,1.1268,3.542,0.17431,0.17058,0,0,0
363.08,1.1359,3.5477,0.17625,0.17194,0,0,0
365.58,1.1449,3.5537,0.17814,0.17349,0,0,0
368.08,1.1537,3.559,0.17988,0.17555,0,0,0
370.58,1.1632,3.565,0.18139,0.17718,0,0,0
373.08,1.1724,3.571,0.18343,0.17895,0,0,0
375.58,1.1814,3.5763,0.18519,0.18066,0,0,0
378.08,1.1906,3.582,0.18709,0.18245,0,0,0
380.58,1.1995,3.588,0.18878,0.18421,0,0,0
383.08,1.2086,3.593,0.19067,0.1863,0,0,0
385.58,1.2176,3.599,0.19261,0.18773,0,0,0
388.08,1.2268,3.6047,0.19455,0.18942,0,0,0
390.58,1.2361,3.61,0.19648,0.19156,0,0,0
393.08,1.2455,3.6153,0.19819,0.19341,0,0,0
395.58,1.2543,3.621,0.20034,0.1951,0,0,0
398.08,1.2637,3.6263,0.20264,0.19692,0,0,0
400.58,1.2731,3.6317,0.20448,0.1989,0,0,0
403.08,1.2826,3.637,0.20653,0.20097,0,0,0
405.58,1.2917,3.642,0.20879,0.20305,0,0,0
408.08,1.301,3.648,0.21089,0.20529,0,0,0
410.58,1.3102,3.6527,0.21314,0.2071,0,0,0
413.08,1.3198,3.6573,0.21525,0.20928,0,0,0
415.58,1.3294,3.6623,0.21758,0.2114,0,0,0
418.08,1.3391,3.667,0.21957,0.21365,0,0,0
420.58,1.3485,3.6727,0.22194,0.21585,0,0,0
423.08,1.3578,3.678,0.22441,0.21814,0,0,0
425.58,1.3674,3.6827,0.22645,0.22041,0,0,0
428.08,1.3769,3.6873,0.22894,0.2227,0,0,0
430.58,1.3866,3.6924,0.23134,0.2249,0,0,0
433.08,1.396,3.6977,0.23387,0.22728,0,0,0
435.58,1.4057,3.702,0.23633,0.22974,0,0,0
438.08,1.4153,3.7063,0.2388,0.23219,0,0,0
440.58,1.4249,3.7117,0.2417,0.23479,0,0,0
443.08,1.4349,3.7157,0.24431,0.237,0,0,0
445.58,1.4446,3.72,0.24717,0.23935,0,0,0
448.08,1.4544,3.725,0.2496,0.24215,0,0,0
450.58,1.464,3.7293,0.2525,0.24467,0,0,0
453.08,1.474,3.7337,0.25552,0.24696,0,0,0
455.58,1.484,3.738,0.25841,0.24952,0,0,0
458.08,1.4941,3.743,0.26097,0.25271,0,0,0
460.58,1.5041,3.7467,0.2644,0.25568,0,0,0
463.08,1.5139,3.7503,0.26772,0.25828,0,0,0
465.58,1.5242,3.7556,0.27034,0.26123,0,0,0
468.08,1.5344,3.7593,0.27397,0.26435,0,0,0
470.58,1.5451,3.7637,0.27761,0.26759,0,0,0
473.08,1.5557,3.767,0.28071,0.2708,0,0,0
475.58,1.5661,3.7713,0.28458,0.2743,0,0,0
478.08,1.5769,3.775,0.28839,0.27774,0,0,0
480.58,1.5874,3.779,0.29168,0.28102,0,0,0
483.08,1.5983,3.7827,0.29564,0.28468,0,0,0
485.58,1.609,3.7857,0.29955,0.28836,0,0,0
488.08,1.62,3.7893,0.30345,0.29208,0,0,0
490.58,1.631,3.793,0.30755,0.29601,0,0,0
493.08,1.6423,3.7963,0.31213,0.2999,0,0,0
495.58,1.6537,3.799,0.31645,0.30407,0,0,0
498.08,1.6651,3.8017,0.32106,0.30827,0,0,0
500.58,1.6768,3.8047,0.3257,0.31245,0,0,0
503.08,1.6888,3.8073,0.33068,0.31721,0,0,0
505.58,1.7006,3.8097,0.33598,0.32213,0,0,0
508.08,1.7133,3.8117,0.34107,0.32725,0,0,0
510.58,1.7255,3.8137,0.34714,0.33247,0,0,0
513.08,1.738,3.8153,0.35265,0.33787,0,0,0
515.58,1.7511,3.8167,0.35894,0.34362,0,0,0
518.08,1.7643,3.817,0.36573,0.34942,0,0,0
520.58,1.7779,3.817,0.37198,0.35546,0,0,0
523.08,1.7914,3.8166,0.37934,0.36177,0,0,0
525.58,1.8054,3.816,0.38675,0.36848,0,0,0
528.08,1.8201,3.8143,0.39475,0.3754,0,0,0
530.58,1.8346,3.8113,0.40313,0.38266,0,0,0
533.08,1.8496,3.808,0.41204,0.39048,0,0,0
535.58,1.865,3.804,0.42114,0.39811,0,0,0
538.08,1.8809,3.7947,0.4314,0.40702,0,0,0
540.58,1.8979,3.7767,0.44336,0.4167,0,0,0
543.08,1.9156,3.756,0.45574,0.42693,0,0,0
545.58,1.9348,3.7227,0.47032,0.43917,0,0,0
546.08,1.9402,3.7056,0.47463,0.4554,0,0,0

File: CH_00_2.csv
Time[s],Displacement[mm],Force[kN],AxStrain_1,AxStrain_2,Thickness[mm],OuterWidth[mm],Diameter[mm]
0.63,0,-0.0054298,0,0,1.1177,19.967,5.2567
3.13,0.001624,0.089427,0.00015199,6.2998e-05,0,0,0
5.63,0.002892,0.18257,4.8999e-05,0.00026996,0,0,0
8.13,0.003609,0.26314,0.00031695,0.00038992,0,0,0
10.63,0.004776,0.326,0.00025797,0.00037193,0,0,0
13.13,0.006942,0.399,0.00047089,0.00034494,0,0,0
15.63,0.007722,0.47615,0.00061781,0.00061781,0,0,0
18.13,0.00846,0.55685,0.00064779,0.00057084,0,0,0
20.63,0.009612,0.63785,0.00049388,0.00073173,0,0,0
23.13,0.011253,0.72215,0.00075172,0.00060082,0,0,0
25.63,0.013419,0.80428,0.0010904,0.00084564,0,0,0
28.13,0.014255,0.88714,0.00086563,0.0010734,0,0,0
30.63,0.015463,0.96715,0.00090259,0.0011673,0,0,0
33.13,0.017253,1.0497,0.0010834,0.0011274,0,0,0
35.63,0.019398,1.1297,0.001406,0.0012282,0,0,0
38.13,0.020946,1.2099,0.0012312,0.0014829,0,0,0
40.63,0.021835,1.2899,0.0012342,0.0014999,0,0,0
43.13,0.023537,1.3674,0.0015198,0.0016706,0,0,0
45.63,0.025847,1.4461,0.002022,0.0018383,0,0,0
48.13,0.027526,1.5217,0.002438,0.0023203,0,0,0
50.63,0.029151,1.5989,0.0023672,0.0021257,0,0,0
53.13,0.030567,1.6711,0.0025587,0.0026754,0,0,0
55.63,0.033032,1.7457,0.0032916,0.0030533,0,0,0
58.13,0.035328,1.816,0.0040807,0.0036364,0,0,0
60.63,0.037383,1.8849,0.0042918,0.0043286,0,0,0
63.13,0.041099,1.9504,0.0047756,0.0046522,0,0,0
65.63,0.04504,2.0094,0.0056242,0.005471,0,0,0
68.13,0.049586,2.0636,0.0073023,0.0069985,0,0,0
70.63,0.056522,2.1094,0.0088378,0.0086178,0,0,0
73.13,0.064401,2.1514,0.0098414,0.0095195,0,0,0
75.63,0.072378,2.1889,0.011815,0.011128,0,0,0
78.13,0.081594,2.2247,0.014084,0.013542,0,0,0
80.63,0.091001,2.2583,0.015719,0.015408,0,0,0
83.13,0.10037,2.2896,0.016796,0.016564,0,0,0
85.63,0.11062,2.3204,0.018784,0.018343,0,0,0
88.13,0.12021,2.3497,0.021194,0.020693,0,0,0
90.63,0.13061,2.3786,0.022668,0.022484,0,0,0
93.13,0.14116,2.4061,0.024492,0.024111,0,0,0
95.63,0.15133,2.4327,0.026079,0.02567,0,0,0
98.13,0.16271,2.4576,0.028059,0.027383,0,0,0
100.63,0.17301,2.4833,0.02954,0.029347,0,0,0
103.13,0.18402,2.5073,0.031377,0.031044,0,0,0
105.63,0.19479,2.5306,0.033366,0.032738,0,0,0
108.13,0.20525,2.5537,0.03491,0.034264,0,0,0
110.63,0.21651,2.5757,0.036657,0.036115,0,0,0
113.13,0.2266,2.5973,0.038287,0.038057,0,0,0
115.63,0.23749,2.6177,0.03992,0.039594,0,0,0
118.13,0.24805,2.6376,0.041529,0.041174,0,0,0
120.63,0.25769,2.657,0.043171,0.042751,0,0,0
123.13,0.26861,2.6757,0.045002,0.04439,0,0,0
125.63,0.2782,2.6936,0.046284,0.045577,0,0,0
128.13,0.28868,2.7113,0.047918,0.047179,0,0,0
130.63,0.29866,2.728,0.04939,0.048492,0,0,0
133.13,0.30854,2.744,0.050666,0.050218,0,0,0
135.63,0.31862,2.7593,0.052102,0.051494,0,0,0
138.13,0.32713,2.7743,0.053663,0.052896,0,0,0
140.63,0.33674,2.789,0.055157,0.054392,0,0,0
143.13,0.34631,2.8034,0.056173,0.055757,0,0,0
145.63,0.35483,2.8167,0.057505,0.05709,0,0,0
148.13,0.36472,2.8306,0.058868,0.058263,0,0,0
150.63,0.37387,2.8436,0.06026,0.059656,0,0,0
153.13,0.38316,2.857,0.061334,0.060951,0,0,0
155.63,0.39309,2.869,0.062533,0.062246,0,0,0
158.13,0.40166,2.882,0.063983,0.063601,0,0,0
160.63,0.41152,2.8943,0.065148,0.064577,0,0,0
163.13,0.42061,2.9063,0.066467,0.065961,0,0,0
165.63,0.42913,2.918,0.067566,0.067186,0,0,0
168.13,0.43908,2.9293,0.068664,0.068378,0,0,0
170.63,0.44763,2.9406,0.070105,0.069694,0,0,0
173.13,0.45704,2.9523,0.071013,0.070852,0,0,0
175.63,0.46654,2.963,0.07245,0.071883,0,0,0
178.13,0.47532,2.9737,0.073605,0.072976,0,0,0
180.63,0.48512,2.985,0.074727,0.074442,0,0,0
183.13,0.49422,2.9956,0.075941,0.075626,0,0,0
185.63,0.50275,3.0056,0.07703,0.076902,0,0,0
188.13,0.51227,3.016,0.078366,0.07802,0,0,0
190.63,0.52091,3.026,0.079451,0.07923,0,0,0
193.13,0.53004,3.0363,0.080629,0.080439,0,0,0
195.63,0.53937,3.046,0.081899,0.081461,0,0,0
198.13,0.5481,3.056,0.083043,0.082667,0,0,0
200.63,0.55794,3.066,0.084031,0.084119,0,0,0
203.13,0.56713,3.0753,0.085388,0.085075,0,0,0
205.63,0.5762,3.0843,0.086344,0.086308,0,0,0
208.13,0.5856,3.094,0.087913,0.087692,0,0,0
210.63,0.59426,3.1037,0.088896,0.088829,0,0,0
213.13,0.60383,3.113,0.090216,0.089996,0,0,0
215.63,0.61276,3.122,0.091443,0.091162,0,0,0
218.13,0.62129,3.131,0.092546,0.092173,0,0,0
220.63,0.63122,3.14,0.093952,0.09361,0,0,0
223.13,0.63989,3.149,0.095357,0.094955,0,0,0
225.63,0.64922,3.1583,0.096364,0.095809,0,0,0
228.13,0.65852,3.1667,0.0974,0.096815,0,0,0
230.63,0.66708,3.175,0.098861,0.097942,0,0,0
233.13,0.67655,3.184,0.10005,0.099311,0,0,0
235.63,0.68531,3.193,0.10117,0.1008,0,0,0
238.13,0.69404,3.2013,0.10235,0.10165,0,0,0
240.63,0.70367,3.2093,0.10378,0.10289,0,0,0
243.13,0.71257,3.2187,0.10523,0.10425,0,0,0
245.63,0.72194,3.2267,0.10628,0.10558,0,0,0
248.13,0.7312,3.2343,0.10731,0.10679,0,0,0
250.63,0.73993,3.243,0.10861,0.10797,0,0,0
253.13,0.74953,3.2503,0.1099,0.1092,0,0,0
255.63,0.75829,3.2587,0.11113,0.11068,0,0,0
258.13,0.76696,3.2667,0.11239,0.11191,0,0,0
260.63,0.77612,3.275,0.11377,0.11338,0,0,0
263.13,0.78492,3.2823,0.11494,0.11443,0,0,0
265.63,0.79402,3.29,0.11635,0.11589,0,0,0
268.13,0.80308,3.298,0.11766,0.11733,0,0,0
270.63,0.81201,3.306,0.11885,0.11831,0,0,0
273.13,0.82158,3.3137,0.12022,0.1198,0,0,0
275.63,0.8301,3.321,0.12156,0.1212,0,0,0
278.13,0.83917,3.3287,0.12287,0.1226,0,0,0
280.63,0.84844,3.3357,0.12418,0.12378,0,0,0
283.13,0.85706,3.3433,0.12569,0.12527,0,0,0
285.63,0.8665,3.351,0.12702,0.12627,0,0,0
288.13,0.87549,3.3583,0.12853,0.12778,0,0,0
290.63,0.88463,3.3653,0.13006,0.12917,0,0,0
293.13,0.89419,3.3727,0.13142,0.13044,0,0,0
295.63,0.90309,3.3803,0.13286,0.13182,0,0,0
298.13,0.91212,3.3863,0.13397,0.1332,0,0,0
300.63,0.92115,3.3937,0.13556,0.13479,0,0,0
303.13,0.92975,3.4013,0.13685,0.13605,0,0,0
305.63,0.93908,3.408,0.13831,0.13722,0,0,0
308.13,0.94798,3.415,0.13989,0.13886,0,0,0
310.63,0.95687,3.422,0.14094,0.14017,0,0,0
313.13,0.96631,3.4287,0.14263,0.14145,0,0,0
315.63,0.9751,3.4353,0.14423,0.14311,0,0,0
318.13,0.98454,3.4423,0.14548,0.14474,0,0,0
320.63,0.99367,3.449,0.14687,0.14611,0,0,0
323.13,1.0023,3.4557,0.14838,0.14767,0,0,0
325.63,1.0114,3.462,0.15014,0.14923,0,0,0
328.13,1.0204,3.4686,0.15164,0.15079,0,0,0
330.63,1.0295,3.475,0.15297,0.15218,0,0,0
333.13,1.039,3.4817,0.15452,0.15382,0,0,0
335.63,1.0482,3.4877,0.15613,0.15549,0,0,0
338.13,1.0573,3.4943,0.15794,0.15678,0,0,0
340.63,1.0662,3.501,0.15923,0.15833,0,0,0
343.13,1.0749,3.507,0.1608,0.16016,0,0,0
345.63,1.084,3.513,0.1624,0.16182,0,0,0
348.13,1.0931,3.5197,0.16426,0.1631,0,0,0
350.63,1.1023,3.526,0.16574,0.16467,0,0,0
353.13,1.1114,3.5317,0.16733,0.16658,0,0,0
355.63,1.1207,3.538,0.16911,0.16825,0,0,0
358.13,1.1303,3.5437,0.17059,0.16993,0,0,0
360.63,1.139,3.5493,0.17229,0.17151,0,0,0
363.13,1.1481,3.556,0.17401,0.17309,0,0,0
365.63,1.1575,3.5613,0.17581,0.17501,0,0,0
368.13,1.1666,3.567,0.17753,0.17659,0,0,0
370.63,1.1758,3.573,0.17916,0.17819,0,0,0
373.13,1.185,3.579,0.18087,0.17993,0,0,0
375.63,1.1941,3.585,0.1828,0.18212,0,0,0
378.13,1.2033,3.59,0.18456,0.18396,0,0,0
380.63,1.2124,3.5963,0.18634,0.18544,0,0,0
383.13,1.222,3.602,0.18824,0.18728,0,0,0
385.63,1.2312,3.607,0.18977,0.18937,0,0,0
388.13,1.2401,3.613,0.19182,0.1912,0,0,0
390.63,1.2497,3.619,0.19378,0.19303,0,0,0
393.13,1.2587,3.6237,0.1958,0.19518,0,0,0
395.63,1.2681,3.629,0.19746,0.19714,0,0,0
398.13,1.2776,3.635,0.19969,0.19929,0,0,0
400.63,1.287,3.64,0.20186,0.20119,0,0,0
403.13,1.2966,3.645,0.20375,0.20327,0,0,0
405.63,1.306,3.65,0.20596,0.20554,0,0,0
408.13,1.3156,3.6556,0.20798,0.20762,0,0,0
410.63,1.3252,3.661,0.21022,0.20969,0,0,0
413.13,1.3344,3.666,0.21231,0.21205,0,0,0
415.63,1.3439,3.671,0.21445,0.2142,0,0,0
418.13,1.3533,3.6756,0.21692,0.21655,0,0,0
420.63,1.3632,3.681,0.21926,0.21839,0,0,0
423.13,1.3728,3.686,0.22145,0.22116,0,0,0
425.63,1.3823,3.691,0.22386,0.22356,0,0,0
428.13,1.3921,3.696,0.22636,0.22565,0,0,0
430.63,1.4017,3.7003,0.22874,0.22795,0,0,0
433.13,1.4115,3.706,0.23119,0.23072,0,0,0
435.63,1.4213,3.71,0.23377,0.2332,0,0,0
438.13,1.4311,3.715,0.23624,0.23562,0,0,0
440.63,1.4411,3.7193,0.23889,0.23842,0,0,0
443.13,1.4509,3.724,0.24192,0.24107,0,0,0
445.63,1.4607,3.728,0.2444,0.2437,0,0,0
448.13,1.4709,3.733,0.24718,0.24654,0,0,0
450.63,1.481,3.7373,0.24985,0.24918,0,0,0
453.13,1.491,3.741,0.25325,0.25208,0,0,0
455.63,1.5008,3.746,0.25596,0.25537,0,0,0
458.13,1.5109,3.7503,0.25881,0.25809,0,0,0
460.63,1.5212,3.7543,0.26228,0.26115,0,0,0
463.13,1.5312,3.758,0.26519,0.26432,0,0,0
465.63,1.5415,3.7623,0.2682,0.26772,0,0,0
468.13,1.5518,3.767,0.27197,0.2708,0,0,0
470.63,1.5621,3.7707,0.27524,0.27468,0,0,0
473.13,1.5731,3.774,0.27865,0.2784,0,0,0
475.63,1.5837,3.7777,0.28243,0.2817,0,0,0
478.13,1.5943,3.781,0.28634,0.28557,0,0,0
480.63,1.6054,3.785,0.29022,0.28952,0,0,0
483.13,1.6165,3.7883,0.29423,0.29361,0,0,0
485.63,1.6277,3.7913,0.2983,0.29773,0,0,0
488.13,1.6389,3.7947,0.3025,0.30241,0,0,0
490.63,1.6502,3.798,0.30668,0.30644,0,0,0
493.13,1.6617,3.801,0.31107,0.31115,0,0,0
495.63,1.6737,3.8037,0.31593,0.31596,0,0,0
498.13,1.6851,3.806,0.32079,0.3204,0,0,0
500.63,1.6974,3.8087,0.32584,0.32517,0,0,0
503.13,1.7094,3.8103,0.3307,0.33078,0,0,0
505.63,1.722,3.8123,0.33568,0.33638,0,0,0
508.13,1.7347,3.814,0.34169,0.342,0,0,0
510.63,1.7479,3.8147,0.34711,0.34835,0,0,0
513.13,1.7611,3.815,0.35319,0.35452,0,0,0
515.63,1.7746,3.816,0.35924,0.36116,0,0,0
518.13,1.7886,3.816,0.36538,0.36871,0,0,0
520.63,1.8027,3.8143,0.37226,0.37547,0,0,0
523.13,1.817,3.8127,0.3791,0.38298,0,0,0
525.63,1.8317,3.81,0.38618,0.39071,0,0,0
528.13,1.8469,3.8043,0.39393,0.39949,0,0,0
530.63,1.8631,3.7957,0.40259,0.40874,0,0,0
533.13,1.8808,3.7724,0.41162,0.42204,0,0,0
535.13,1.8984,3.7181,0.4209,0.43705,0,0,0