Folder: ethz/LAB_DATA/DP600_results/DATA

Note: README.md
**MODELLING AND CALIBRATING A POLYN YIELD SURFACE FUNCTION**

---

In the context of my research assistant internship at ETH Zurich, I have to implement and find an operationnal strategy to calibrate a yield surface function based on the polyN model which is a homogenous polynomial of degree N.

To make the calibration operationnal please copy paste a folder "{material}_results" containing the csv files for a given material in the lab_data directory and then change the parameters you want in the polyN_optimization/param.txt. Then run polyN_optimization/optimize_polyN.py. The coefficients of the polyN function will be accessible in the polyN_coeff.npy file.

File: CH_45_2.csv
Time[s],Displacement[mm],Force[kN],AxStrain_1,AxStrain_2,Thickness[mm],OuterWidth[mm],Diameter[mm]
0.59,0,-0.017095,0,0,1.5263,20,4.8913
4.09,0.000335,0.11172,0.00019298,-0.00025703,0,0,0
7.59,0.000461,0.26757,0.00051687,-5e-06,0,0,0
11.09,0.000552,0.39415,0.00029496,0.0004389,0,0,0
14.59,0.000738,0.52128,0.00049688,0.00012299,0,0,0
18.09,0.00099,0.65372,0.00036393,-0.00041409,0,0,0
21.59,0.001241,0.79228,0.00048288,0.00068876,0,0,0
25.09,0.002066,0.93615,0.00030095,0.00081467,0,0,0
28.59,0.00241,1.0804,0.00034094,-0.00011501,0,0,0
32.09,0.002486,1.2269,0.00032795,0.00042791,0,0,0
35.59,0.003347,1.3736,0.00047988,0.0010794,0,0,0
39.09,0.003397,1.52,0.00038093,-0.00010501,0,0,0
42.59,0.003751,1.6646,0.00026796,0.00051387,0,0,0
46.09,0.004727,1.8097,0.00047289,0.0012572,0,0,0
49.59,0.004797,1.9536,0.0006258,8.2997e-05,0,0,0
53.09,0.004694,2.0984,0.0004539,0.00082766,0,0,0
56.59,0.006085,2.2431,0.00058583,0.0010295,0,0,0
60.09,0.006025,2.3876,0.0007777,5.9998e-05,0,0,0
63.59,0.006128,2.5294,0.00065479,0.00069476,0,0,0
67.09,0.007561,2.6726,0.00066878,0.00099251,0,0,0
70.59,0.007171,2.8166,0.00085364,0.00024797,0,0,0
74.09,0.007306,2.9604,0.00093956,0.0006388,0,0,0
77.59,0.009236,3.1007,0.00081067,0.0010654,0,0,0
81.09,0.008594,3.2424,0.00091658,0.00042391,0,0,0
84.59,0.008717,3.381,0.00092657,0.00098951,0,0,0
88.09,0.010753,3.5204,0.0011913,0.0012942,0,0,0
91.59,0.010296,3.6593,0.00092957,0.00035494,0,0,0
95.09,0.010527,3.7986,0.00085364,0.0011653,0,0,0
98.59,0.012636,3.9369,0.0011184,0.0015558,0,0,0
102.09,0.011686,4.075,0.0011643,0.00060981,0,0,0
105.59,0.012246,4.2119,0.0010325,0.0012772,0,0,0
109.09,0.014205,4.35,0.0014919,0.0017135,0,0,0
112.59,0.013275,4.4856,0.0012243,0.00082766,0,0,0
116.09,0.014136,4.6241,0.001423,0.0013571,0,0,0
119.59,0.016155,4.7597,0.0018523,0.0015548,0,0,0
123.09,0.015096,4.8936,0.0015218,0.0011254,0,0,0
126.59,0.015924,5.0274,0.0016207,0.001423,0,0,0
130.09,0.017711,5.162,0.001984,0.0015218,0,0,0
133.59,0.016553,5.2969,0.0018523,0.0010914,0,0,0
137.09,0.018009,5.4334,0.0017535,0.001423,0,0,0
140.59,0.019499,5.5666,0.0022155,0.0019182,0,0,0
144.09,0.018737,5.7011,0.0017195,0.00092657,0,0,0
147.59,0.020327,5.8336,0.0018193,0.0021168,0,0,0
151.09,0.021882,5.9714,0.0022814,0.0022165,0,0,0
154.59,0.021253,6.1067,0.0020509,0.0014889,0,0,0
158.09,0.02314,6.2427,0.0024141,0.0026126,0,0,0
161.59,0.024398,6.3747,0.0028759,0.0026784,0,0,0
165.09,0.024167,6.5073,0.0025458,0.0018523,0,0,0
168.59,0.026021,6.6409,0.0029746,0.0027771,0,0,0
172.09,0.026815,6.7761,0.0034042,0.00281,0,0,0
175.59,0.027014,6.9076,0.0028759,0.0021168,0,0,0
179.09,0.029033,7.0401,0.0033713,0.0033384,0,0,0
182.59,0.030126,7.1714,0.0038655,0.00347,0,0,0
186.09,0.031384,7.3016,0.0035686,0.0029098,0,0,0
189.59,0.032907,7.429,0.0042948,0.0043933,0,0,0
193.09,0.034032,7.5573,0.00469,0.0040966,0,0,0
196.59,0.03582,7.6839,0.0040966,0.0035357,0,0,0
200.09,0.037111,7.8111,0.0050194,0.0050522,0,0,0
203.59,0.039031,7.9336,0.0055794,0.0049865,0,0,0
207.09,0.04201,8.0554,0.0050522,0.0047228,0,0,0
210.59,0.042739,8.1756,0.0066975,0.0066975,0,0,0
214.09,0.045851,8.2984,0.0065992,0.0062047,0,0,0
217.59,0.04883,8.4206,0.0063697,0.0057763,0,0,0
221.09,0.049757,8.5404,0.0084393,0.0082102,0,0,0
224.59,0.054226,8.656,0.0083074,0.0079801,0,0,0
228.09,0.05757,8.771,0.0081437,0.0078154,0,0,0
231.59,0.059887,8.8844,0.010472,0.010341,0,0,0
235.09,0.064257,8.9961,0.010014,0.010046,0,0,0
238.59,0.067931,9.106,0.010866,0.010145,0,0,0
242.09,0.073394,9.2137,0.013285,0.013254,0,0,0
245.59,0.076539,9.318,0.012469,0.012992,0,0,0
249.09,0.081438,9.424,0.013841,0.013025,0,0,0
252.59,0.087794,9.5291,0.016677,0.015896,0,0,0
256.09,0.092032,9.6339,0.016026,0.015929,0,0,0
259.59,0.098156,9.7339,0.017426,0.016157,0,0,0
263.09,0.10378,9.8339,0.019765,0.019182,0,0,0
266.59,0.1112,9.9313,0.020057,0.019604,0,0,0
270.09,0.11676,10.026,0.021938,0.019799,0,0,0
273.59,0.12265,10.118,0.023782,0.022618,0,0,0
277.09,0.1304,10.209,0.024364,0.02333,0,0,0
280.59,0.13732,10.299,0.026204,0.024203,0,0,0
284.09,0.14563,10.387,0.02788,0.026236,0,0,0
287.59,0.15132,10.473,0.029552,0.027654,0,0,0
291.09,0.15973,10.557,0.030934,0.028749,0,0,0
294.59,0.16735,10.639,0.032569,0.030613,0,0,0
298.09,0.17628,10.723,0.034042,0.032505,0,0,0
301.59,0.183,10.803,0.035704,0.033273,0,0,0
305.09,0.19161,10.881,0.037588,0.035033,0,0,0
308.59,0.20002,10.957,0.039339,0.037461,0,0,0
312.09,0.20922,11.032,0.041248,0.038353,0,0,0
315.59,0.21803,11.104,0.042929,0.039913,0,0,0
319.09,0.22554,11.177,0.044324,0.042487,0,0,0
322.59,0.23461,11.246,0.046601,0.043058,0,0,0
326.09,0.24342,11.316,0.048243,0.045243,0,0,0
329.59,0.25332,11.384,0.049882,0.047487,0,0,0
333.09,0.26173,11.452,0.052524,0.048371,0,0,0
336.59,0.27097,11.517,0.054408,0.05067,0,0,0
340.09,0.27977,11.582,0.055879,0.052871,0,0,0
343.59,0.29069,11.646,0.058226,0.054189,0,0,0
347.09,0.30013,11.707,0.060034,0.056006,0,0,0
350.59,0.3099,11.767,0.061935,0.058008,0,0,0
354.09,0.31844,11.828,0.064297,0.05985,0,0,0
357.59,0.3289,11.886,0.066777,0.061532,0,0,0
361.09,0.33843,11.944,0.068572,0.063988,0,0,0
364.59,0.34946,12,0.070827,0.06619,0,0,0
368.09,0.35816,12.057,0.073168,0.066903,0,0,0
371.59,0.36882,12.11,0.07492,0.069624,0,0,0
375.09,0.37813,12.164,0.076761,0.071907,0,0,0
378.59,0.38978,12.216,0.078874,0.0732,0,0,0
382.09,0.39961,12.269,0.0808,0.075413,0,0,0
385.59,0.4105,12.319,0.083392,0.078081,0,0,0
389.09,0.41947,12.369,0.085857,0.079703,0,0,0
392.59,0.43089,12.418,0.088254,0.081442,0,0,0
396.09,0.44116,12.466,0.090857,0.08446,0,0,0
399.59,0.45291,12.515,0.093575,0.086253,0,0,0
403.09,0.46311,12.562,0.095773,0.08783,0,0,0
406.59,0.47406,12.608,0.098026,0.090767,0,0,0
410.09,0.48439,12.654,0.10039,0.092791,0,0,0
413.59,0.49634,12.698,0.10297,0.09454,0,0,0
417.09,0.5075,12.743,0.10547,0.097277,0,0,0
420.59,0.51922,12.787,0.10791,0.099647,0,0,0
424.09,0.53021,12.83,0.11053,0.10121,0,0,0
427.59,0.54114,12.871,0.1134,0.10443,0,0,0
431.09,0.55256,12.913,0.11602,0.1069,0,0,0
434.59,0.56414,12.953,0.11826,0.10875,0,0,0
438.09,0.57619,12.994,0.12131,0.11156,0,0,0
441.59,0.58745,13.033,0.12331,0.11426,0,0,0
445.09,0.59933,13.074,0.12573,0.11597,0,0,0
448.59,0.60999,13.112,0.12833,0.11871,0,0,0
452.09,0.62287,13.15,0.13042,0.12141,0,0,0
455.59,0.63446,13.188,0.13243,0.12416,0,0,0
459.09,0.6475,13.225,0.13422,0.12693,0,0,0
462.59,0.65866,13.262,0.13798,0.12941,0,0,0
466.09,0.67127,13.298,0.14034,0.13252,0,0,0
469.59,0.68213,13.334,0.14313,0.1342,0,0,0
473.09,0.6954,13.368,0.14591,0.13735,0,0,0
476.58,0.70709,13.403,0.14791,0.14026,0,0,0
480.08,0.7206,13.438,0.15082,0.14233,0,0,0
483.58,0.73268,13.472,0.15307,0.14574,0,0,0
487.08,0.74536,13.506,0.15582,0.14908,0,0,0
490.58,0.75764,13.538,0.15868,0.15159,0,0,0
494.08,0.76986,13.569,0.16135,0.15398,0,0,0
497.58,0.78313,13.602,0.16386,0.15802,0,0,0
501.08,0.79585,13.632,0.16812,0.16118,0,0,0
504.58,0.80965,13.663,0.17052,0.16293,0,0,0
508.09,0.82173,13.692,0.17365,0.16633,0,0,0
511.58,0.83514,13.723,0.17745,0.17055,0,0,0
515.09,0.84703,13.753,0.1803,0.17359,0,0,0
518.59,0.86129,13.782,0.18364,0.17612,0,0,0
522.09,0.87394,13.812,0.1873,0.17991,0,0,0
525.59,0.88831,13.84,0.19013,0.18369,0,0,0
529.09,0.90152,13.87,0.19431,0.18686,0,0,0
532.59,0.91499,13.897,0.19717,0.18916,0,0,0
536.09,0.92866,13.924,0.20078,0.19389,0,0,0
539.59,0.94161,13.951,0.20435,0.19678,0,0,0
543.09,0.9564,13.978,0.20825,0.20038,0,0,0
546.59,0.96998,14.005,0.21196,0.20444,0,0,0
550.09,0.98461,14.03,0.21709,0.20805,0,0,0
553.59,0.99818,14.055,0.22084,0.21181,0,0,0
557.09,1.0126,14.081,0.22424,0.21595,0,0,0
560.59,1.0268,14.105,0.22857,0.2209,0,0,0
564.09,1.0406,14.129,0.2328,0.22458,0,0,0
567.59,1.0556,14.153,0.23663,0.22857,0,0,0
571.09,1.0693,14.176,0.24044,0.23332,0,0,0
574.59,1.0851,14.2,0.24584,0.23727,0,0,0
578.09,1.0991,14.221,-Inf,0.24188,0,0,0
581.59,1.1145,14.244,-Inf,0.2464,0,0,0
585.09,1.129,14.266,-Inf,0.25148,0,0,0
588.58,1.1441,14.288,-Inf,0.25628,0,0,0
592.09,1.159,14.309,-Inf,0.26145,0,0,0
595.58,1.1738,14.33,-Inf,0.26671,0,0,0
599.08,1.1903,14.351,-Inf,0.27144,0,0,0
602.58,1.2056,14.37,-Inf,0.27688,0,0,0
606.09,1.2216,14.39,-Inf,0.28154,0,0,0
609.58,1.2379,14.408,-Inf,0.28698,0,0,0
613.09,1.2531,14.426,-Inf,0.29334,0,0,0
616.58,1.2695,14.444,-Inf,0.29943,0,0,0
620.09,1.285,14.462,-Inf,-Inf,0,0,0
623.58,1.3015,14.479,-Inf,-Inf,0,0,0
627.08,1.3181,14.494,-Inf,-Inf,0,0,0
630.58,1.3343,14.511,-Inf,-Inf,0,0,0
634.09,1.3516,14.526,-Inf,-Inf,0,0,0
637.58,1.3686,14.541,-Inf,-Inf,0,0,0
641.08,1.3861,14.555,-Inf,-Inf,0,0,0
644.58,1.404,14.569,-Inf,-Inf,0,0,0
648.08,1.4203,14.581,-Inf,-Inf,0,0,0
651.58,1.4387,14.593,-Inf,-Inf,0,0,0
655.08,1.4561,14.604,-Inf,-Inf,0,0,0
658.58,1.4743,14.614,-Inf,-Inf,0,0,0
662.08,1.4931,14.623,-Inf,-Inf,0,0,0
665.58,1.5113,14.631,-Inf,-Inf,0,0,0
669.08,1.5305,14.638,-Inf,-Inf,0,0,0
672.58,1.55,14.642,-Inf,-Inf,0,0,0
676.08,1.5694,14.646,-Inf,-Inf,0,0,0
679.58,1.5904,14.648,-Inf,-Inf,0,0,0
683.08,1.6108,14.646,-Inf,-Inf,0,0,0
686.58,1.6317,14.643,-Inf,-Inf,0,0,0
690.08,1.6537,14.635,-Inf,-Inf,0,0,0
693.58,1.6761,14.621,-Inf,-Inf,0,0,0
697.08,1.6987,14.601,-Inf,-Inf,0,0,0
700.58,1.7231,14.568,-Inf,-Inf,0,0,0
704.08,1.7487,14.52,-Inf,-Inf,0,0,0
707.58,1.7776,14.424,-Inf,-Inf,0,0,0
710.08,1.8006,14.315,-Inf,-Inf,0,0,0

File: CH_90_2.csv
Time[s],Displacement[mm],Force[kN],AxStrain_1,AxStrain_2,Thickness[mm],OuterWidth[mm],Diameter[mm]
0.59,0,-0.018095,0,0,1.5296,20,4.8562
4.09,0.000925,0.11356,0.00052286,0.00015499,0,0,0
7.59,0.000983,0.27558,0.00057284,2.5e-05,0,0,0
11.09,0.000988,0.40214,0.00024197,8.4996e-05,0,0,0
14.59,0.001766,0.53215,0.00040692,4.6999e-05,0,0,0
18.09,0.001765,0.66685,0.00058883,7.5997e-05,0,0,0
21.59,0.002059,0.80686,0.00059882,7.5997e-05,0,0,0
25.09,0.00287,0.94757,0.00042691,0.00015199,0,0,0
28.59,0.003291,1.0909,0.00073773,0.00046689,0,0,0
32.09,0.003205,1.2359,0.00051986,0.00036093,0,0,0
35.59,0.004413,1.3831,0.00050987,0.00038393,0,0,0
39.09,0.00433,1.5263,0.00091958,0.00078469,0,0,0
42.59,0.004509,1.6721,0.00055585,0.00026796,0,0,0
46.09,0.005956,1.8143,0.00052586,0.0004369,0,0,0
49.59,0.005873,1.9564,0.0008996,0.00083365,0,0,0
53.09,0.005909,2.0997,0.00075771,0.00040392,0,0,0
56.59,0.007449,2.242,0.00086363,0.00069476,0,0,0
60.09,0.007217,2.3816,0.0011254,0.0006258,0,0,0
63.59,0.007277,2.5233,0.00084364,0.00068876,0,0,0
67.09,0.00914,2.6604,0.00098651,0.00079768,0,0,0
70.59,0.008697,2.7997,0.0012742,0.00091958,0,0,0
74.09,0.008799,2.9414,0.00093356,0.00076471,0,0,0
77.59,0.010941,3.0826,0.0010025,0.00097253,0,0,0
81.09,0.01022,3.2216,0.0011543,0.00085364,0,0,0
84.59,0.010269,3.3616,0.0011483,0.00098252,0,0,0
88.09,0.01258,3.501,0.0012472,0.0012572,0,0,0
91.59,0.011415,3.6376,0.001429,0.0011483,0,0,0
95.09,0.012077,3.7761,0.0012902,0.0011913,0,0,0
98.59,0.014457,3.9126,0.0014989,0.0016936,0,0,0
102.09,0.013123,4.0489,0.0019082,0.0014889,0,0,0
105.59,0.013904,4.1833,0.0015847,0.0013561,0,0,0
109.09,0.01598,4.3204,0.002011,0.0017265,0,0,0
112.59,0.014666,4.4576,0.0017864,0.0016866,0,0,0
116.09,0.01589,4.5927,0.0016866,0.0014889,0,0,0
119.59,0.017711,4.7261,0.0022485,0.001984,0,0,0
123.09,0.016519,4.8607,0.0018852,0.0019182,0,0,0
126.59,0.018042,4.9939,0.0018193,0.0016866,0,0,0
130.09,0.019698,5.1301,0.0022155,0.0021826,0,0,0
133.59,0.018539,5.2623,0.0020509,0.0019182,0,0,0
137.09,0.019863,5.3991,0.0019182,0.0019182,0,0,0
140.59,0.021585,5.5333,0.0024141,0.0026445,0,0,0
144.09,0.020558,5.6663,0.0023143,0.0022155,0,0,0
147.59,0.022379,5.8006,0.0021168,0.0025787,0,0,0
151.09,0.023538,5.9371,0.0025458,0.0027113,0,0,0
154.59,0.022909,6.0719,0.002447,0.002447,0,0,0
158.09,0.024895,6.2051,0.0027771,0.0029088,0,0,0
161.59,0.026087,6.3357,0.0034042,0.0035357,0,0,0
165.09,0.025855,6.4683,0.0032387,0.0029756,0,0,0
168.59,0.028106,6.6016,0.0030414,0.0034371,0,0,0
172.09,0.028901,6.7354,0.0036683,0.0037998,0,0,0
175.59,0.029397,6.8666,0.0033384,0.0035686,0,0,0
179.09,0.031152,6.9979,0.0037011,0.0039323,0,0,0
182.59,0.032046,7.1264,0.0040966,0.0045586,0,0,0
186.09,0.033403,7.2553,0.0037669,0.0040637,0,0,0
189.59,0.034661,7.3829,0.0047557,0.0048542,0,0,0
193.09,0.036184,7.5111,0.0052174,0.00548,0,0,0
196.59,0.038468,7.6346,0.0047557,0.0049537,0,0,0
200.09,0.039197,7.7599,0.0056122,0.0061391,0,0,0
203.59,0.04158,7.8806,0.0057107,0.0062375,0,0,0
207.09,0.044394,8.0021,0.0054471,0.0061053,0,0,0
210.59,0.044759,8.123,0.0066975,0.0078154,0,0,0
214.09,0.0484,8.2436,0.0067641,0.0074869,0,0,0
217.59,0.051379,8.3629,0.0068296,0.0077499,0,0,0
221.09,0.052538,8.4801,0.0086366,0.0096859,0,0,0
224.59,0.057239,8.5956,0.0083738,0.0096206,0,0,0
228.09,0.060186,8.7101,0.0085375,0.010113,0,0,0
231.59,0.063033,8.8214,0.010799,0.011913,0,0,0
235.09,0.067072,8.9339,0.010472,0.011717,0,0,0
238.59,0.071012,9.0423,0.010833,0.012404,0,0,0
242.09,0.076176,9.149,0.012894,0.014495,0,0,0
245.59,0.079156,9.252,0.012861,0.014626,0,0,0
249.09,0.084486,9.355,0.013678,0.015701,0,0,0
252.59,0.090048,9.4581,0.015603,0.017622,0,0,0
256.09,0.094121,9.5599,0.015668,0.017916,0,0,0
259.59,0.10001,9.6599,0.016547,0.019215,0,0,0
263.09,0.10558,9.7566,0.018531,0.021,0,0,0
266.59,0.11322,9.8507,0.018922,0.021811,0,0,0
270.09,0.11776,9.9473,0.020382,0.022977,0,0,0
273.59,0.12451,10.04,0.021712,0.024496,0,0,0
277.09,0.1311,10.131,0.022003,0.025982,0,0,0
280.59,0.13829,10.219,0.023394,0.026916,0,0,0
284.09,0.14511,10.306,0.024913,0.028463,0,0,0
287.59,0.15107,10.392,0.026075,0.029974,0,0,0
291.09,0.16014,10.475,0.02746,0.030937,0,0,0
294.59,0.16712,10.558,0.028845,0.03238,0,0,0
298.09,0.1756,10.637,0.029841,0.03395,0,0,0
301.59,0.18172,10.717,0.030966,0.035678,0,0,0
305.09,0.19076,10.796,0.032698,0.037434,0,0,0
308.59,0.19881,10.871,0.034042,0.038741,0,0,0
312.09,0.20781,10.944,0.035193,0.040334,0,0,0
315.59,0.21483,11.015,0.036917,0.041795,0,0,0
319.09,0.22314,11.088,0.03797,0.043127,0,0,0
322.59,0.23198,11.159,0.039594,0.045409,0,0,0
326.09,0.24122,11.227,0.041406,0.047116,0,0,0
329.59,0.24986,11.294,0.042454,0.048378,0,0,0
333.09,0.25761,11.361,0.044641,0.050774,0,0,0
336.59,0.26695,11.426,0.046096,0.052596,0,0,0
340.09,0.27619,11.493,0.047423,0.05401,0,0,0
343.59,0.28648,11.556,0.049567,0.056361,0,0,0
347.09,0.29479,11.62,0.050638,0.058018,0,0,0
350.59,0.30426,11.681,0.052399,0.059423,0,0,0
354.09,0.31337,11.741,0.054313,0.061854,0,0,0
357.59,0.32426,11.8,0.055942,0.063409,0,0,0
361.09,0.3337,11.858,0.057757,0.065179,0,0,0
364.59,0.34383,11.915,0.059785,0.067347,0,0,0
368.09,0.35211,11.972,0.061063,0.069327,0,0,0
371.59,0.36303,12.027,0.062899,0.071085,0,0,0
375.09,0.37297,12.08,0.064638,0.073273,0,0,0
378.59,0.38406,12.134,0.066312,0.075578,0,0,0
382.09,0.39307,12.187,0.068045,0.077664,0,0,0
385.59,0.4033,12.239,0.070209,0.079777,0,0,0
389.09,0.4131,12.29,0.071905,0.081549,0,0,0
392.59,0.42485,12.339,0.073658,0.084018,0,0,0
396.09,0.43502,12.389,0.076392,0.086512,0,0,0
399.59,0.44621,12.437,0.078139,0.088482,0,0,0
403.09,0.45542,12.486,0.080188,0.090545,0,0,0
406.59,0.46644,12.532,0.082203,0.092719,0,0,0
410.09,0.47734,12.579,0.083879,0.09489,0,0,0
413.59,0.48922,12.625,0.085855,0.097267,0,0,0
417.09,0.50005,12.67,0.08804,0.099636,0,0,0
420.59,0.51111,12.714,0.089645,0.1023,0,0,0
424.09,0.52141,12.758,0.092004,0.10445,0,0,0
427.59,0.53286,12.8,0.094055,0.1071,0,0,0
431.09,0.54452,12.842,0.096492,0.10927,0,0,0
434.59,0.55624,12.884,0.098835,0.11156,0,0,0
438.09,0.56779,12.926,0.10111,0.11434,0,0,0
441.59,0.57836,12.965,0.10311,0.1162,0,0,0
445.09,0.58998,13.005,0.10559,0.11929,0,0,0
448.59,0.6014,13.045,0.10782,0.12143,0,0,0
452.09,0.61389,13.085,0.10963,0.12339,0,0,0
455.59,0.62557,13.123,0.11203,0.12695,0,0,0
459.09,0.63812,13.161,0.11449,0.12838,0,0,0
462.59,0.64855,13.198,0.1167,0.13129,0,0,0
466.09,0.66127,13.235,0.11914,0.1337,0,0,0
469.59,0.67259,13.271,0.12146,0.13645,0,0,0
473.09,0.68613,13.307,0.12433,0.13899,0,0,0
476.59,0.69795,13.342,0.12643,0.14172,0,0,0
480.09,0.71116,13.377,0.12859,0.1449,0,0,0
483.59,0.72232,13.412,0.13141,0.14777,0,0,0
487.09,0.73481,13.445,0.13378,0.15093,0,0,0
490.59,0.74702,13.48,0.13656,0.15332,0,0,0
494.09,0.7604,13.513,0.1391,0.15689,0,0,0
497.59,0.77361,13.545,0.14183,0.15935,0,0,0
501.09,0.78649,13.577,0.1445,0.16166,0,0,0
504.59,0.79907,13.609,0.14725,0.16551,0,0,0
508.09,0.81109,13.64,0.1497,0.16859,0,0,0
511.59,0.82466,13.671,0.1528,0.1713,0,0,0
515.09,0.83685,13.701,0.15524,0.17484,0,0,0
518.59,0.85122,13.731,0.1581,0.17919,0,0,0
522.09,0.86403,13.761,0.16166,0.1819,0,0,0
525.59,0.87794,13.791,0.16422,0.18498,0,0,0
529.09,0.89052,13.82,0.16725,0.18839,0,0,0
532.59,0.9038,13.848,0.17007,0.19109,0,0,0
536.09,0.91734,13.877,0.17364,0.19495,0,0,0
539.59,0.93111,13.905,0.17681,0.19748,0,0,0
543.09,0.94598,13.933,0.1798,0.20184,0,0,0
546.59,0.95912,13.958,0.18385,0.20549,0,0,0
550.09,0.97392,13.985,0.18713,0.20842,0,0,0
553.59,0.98696,14.012,0.19014,0.21242,0,0,0
557.09,1.0013,14.037,0.19337,0.21506,0,0,0
560.59,1.0145,14.063,0.19704,0.21967,0,0,0
564.09,1.029,14.088,0.20038,0.22315,0,0,0
567.59,1.0438,14.113,0.20411,0.22722,0,0,0
571.09,1.0584,14.138,0.20721,0.23051,0,0,0
574.59,1.0735,14.161,0.21084,0.23523,0,0,0
578.09,1.0872,14.184,0.21464,0.23902,0,0,0
581.59,1.1022,14.207,0.21704,0.24368,0,0,0
585.09,1.1161,14.231,0.22137,0.24753,0,0,0
588.59,1.1312,14.252,0.22455,0.25207,0,0,0
592.09,1.1464,14.274,0.22857,0.25631,0,0,0
595.59,1.1612,14.296,0.23219,0.26068,0,0,0
599.09,1.1774,14.317,0.23665,0.26554,0,0,0
602.59,1.1922,14.339,0.241,0.26909,0,0,0
606.09,1.2082,14.359,0.24505,0.27331,0,0,0
609.59,1.2231,14.379,0.24859,0.27811,0,0,0
613.09,1.2385,14.399,0.25354,0.28277,0,0,0
616.59,1.2542,14.417,0.25825,0.28819,0,0,0
620.09,1.2699,14.437,0.26305,0.2932,0,0,0
623.59,1.2867,14.455,0.26691,0.29758,0,0,0
627.09,1.3024,14.472,0.27161,0.30309,0,0,0
630.59,1.3191,14.49,0.27645,0.3078,0,0,0
634.09,1.3359,14.507,0.28231,0.31339,0,0,0
637.59,1.3517,14.523,0.28763,0.31892,0,0,0
641.09,1.3692,14.54,0.29199,0.32408,0,0,0
644.59,1.3851,14.555,0.2983,0.32955,0,0,0
648.09,1.4024,14.571,0.3035,0.33565,0,0,0
651.59,1.4195,14.585,0.31029,0.3419,0,0,0
655.09,1.4364,14.598,0.31453,0.34761,0,0,0
658.59,1.4547,14.612,0.32106,0.35409,0,0,0
662.09,1.4721,14.624,0.32762,0.35921,0,0,0
665.59,1.4902,14.636,0.33409,0.36517,0,0,0
669.09,1.5089,14.647,0.33959,0.37129,0,0,0
672.59,1.5266,14.657,0.34594,0.37887,0,0,0
676.09,1.5457,14.667,0.35262,0.38783,0,0,0
679.59,1.5646,14.676,0.3598,0.3962,0,0,0
683.09,1.5833,14.684,0.36635,-Inf,0,0,0
686.59,1.6034,14.689,0.37262,-Inf,0,0,0
690.09,1.6226,14.693,0.37919,-Inf,0,0,0
693.59,1.6424,14.696,0.38689,-Inf,0,0,0
697.09,1.6632,14.697,0.39322,-Inf,0,0,0
700.59,1.6836,14.696,-Inf,-Inf,0,0,0
704.09,1.7043,14.692,-Inf,-Inf,0,0,0
707.59,1.7268,14.683,-Inf,-Inf,0,0,0
711.09,1.7492,14.666,-Inf,-Inf,0,0,0
714.59,1.7723,14.642,-Inf,-Inf,0,0,0
718.09,1.7976,14.603,-Inf,-Inf,0,0,0
721.59,1.8269,14.517,-Inf,-Inf,0,0,0
723.59,1.8456,14.431,-Inf,-Inf,0,0,0