Folder: ethz/LAB_DATA/DP600_results/DATA (part 2)

File: NT6_45_2.csv
Time[s],Displacement[mm],Force[kN],AxStrain_1,AxStrain_2,Thickness[mm],OuterWidth[mm],InnerWidth[mm]
0.65,0,-0.019292,0,0,1.5295,20,10.008
3.15,0.00035,0.050436,-3.3001e-05,0,0,0,0
5.65,0.000735,0.18756,-4.7001e-05,0,0,0,0
8.15,0.001006,0.28515,-8.3003e-05,0,0,0,0
10.65,0.001215,0.37428,0.00011299,0,0,0,0
13.15,0.001613,0.46786,0.00016999,0,0,0,0
15.65,0.001779,0.559,2.3e-05,0,0,0,0
18.15,0.001867,0.65358,-1e-05,0,0,0,0
20.65,0.002276,0.75471,-0.00015601,0,0,0,0
23.15,0.002679,0.85515,-3e-05,0,0,0,0
25.65,0.003524,0.95828,3e-06,0,0,0,0
28.15,0.003589,1.0596,1.3e-05,0,0,0,0
30.65,0.00373,1.1629,-0.00016601,0,0,0,0
33.15,0.004449,1.267,-0.00012601,0,0,0,0
35.65,0.00557,1.3721,0.00014899,0,0,0,0
38.15,0.005697,1.477,-3e-05,0,0,0,0
40.65,0.005434,1.5786,-1.3e-05,0,0,0,0
43.15,0.006248,1.6841,-4.6001e-05,0,0,0,0
45.65,0.007296,1.7826,7.2997e-05,0,0,0,0
48.15,0.00763,1.8889,0.00025797,0,0,0,0
50.65,0.007227,1.9901,-0.00014201,0,0,0,0
53.15,0.007729,2.0944,-5.0001e-05,0,0,0,0
55.65,0.008904,2.1943,2.6e-05,0,0,0,0
58.15,0.009759,2.2964,3.5999e-05,0,0,0,0
60.65,0.00934,2.3981,-4.3001e-05,0,0,0,0
63.15,0.009321,2.4996,-3.6001e-05,0,0,0,0
65.65,0.010772,2.603,-6.0002e-05,0,0,0,0
68.15,0.011866,2.7044,0.00016199,0,0,0,0
70.65,0.011066,2.8076,0.00014199,0,0,0,0
73.15,0.010979,2.9076,0.00013199,0,0,0,0
75.65,0.012542,3.0091,0.00024497,0,0,0,0
78.15,0.01402,3.1097,0.00037693,0,0,0,0
80.65,0.013046,3.2117,0.00037093,0,0,0,0
83.15,0.012762,3.3137,0.00035094,0,0,0,0
85.65,0.01419,3.4119,0.00053286,0,0,0,0
88.15,0.015767,3.5131,0.00070775,0,0,0,0
90.65,0.015035,3.6086,0.00058283,0,0,0,0
93.15,0.014558,3.7113,0.00032395,0,0,0,0
95.65,0.016278,3.8084,0.00046289,0,0,0,0
98.15,0.018143,3.9091,0.00091658,0,0,0,0
100.65,0.017805,4.006,0.00074172,0,0,0,0
103.15,0.016986,4.1049,0.00048988,0,0,0,0
105.65,0.018781,4.2017,0.00048288,0,0,0,0
108.15,0.020655,4.2989,0.00067177,0,0,0,0
110.65,0.020784,4.399,0.00056284,0,0,0,0
113.15,0.019894,4.4951,0.00042991,0,0,0,0
115.65,0.021416,4.5936,0.00056284,0,0,0,0
118.15,0.023435,4.6886,0.0006288,0,0,0,0
120.65,0.023995,4.7839,0.00079468,0,0,0,0
123.15,0.023497,4.8787,0.0006288,0,0,0,0
125.65,0.024786,4.9751,0.0006288,0,0,0,0
128.15,0.0268,5.07,0.00079468,0,0,0,0
130.65,0.02743,5.1626,0.0011254,0,0,0,0
133.15,0.027588,5.2571,0.0010255,0,0,0,0
135.65,0.028346,5.3479,0.00082766,0,0,0,0
138.15,0.030493,5.4426,0.0013231,0,0,0,0
140.65,0.031583,5.533,0.0018193,0,0,0,0
143.15,0.032574,5.6271,0.0013571,0,0,0,0
145.65,0.033929,5.7163,0.0013231,0,0,0,0
148.15,0.035453,5.8051,0.0017535,0,0,0,0
150.65,0.037109,5.894,0.0021826,0,0,0,0
153.15,0.039555,5.9833,0.002018,0,0,0,0
155.65,0.042004,6.0726,0.001985,0,0,0,0
158.15,0.043389,6.1591,0.0022814,0,0,0,0
160.65,0.045473,6.2456,0.0028759,0,0,0,0
163.15,0.049078,6.3283,0.0026784,0,0,0,0
165.65,0.052848,6.4106,0.0027113,0,0,0,0
168.15,0.05486,6.4919,0.0033055,0,0,0,0
170.65,0.057136,6.573,0.0043943,0,0,0,0
173.15,0.061697,6.6521,0.0040986,0,0,0,0
175.65,0.06566,6.7271,0.0040657,0,0,0,0
178.15,0.069027,6.8049,0.0047577,0,0,0,0
180.65,0.074084,6.8769,0.0061083,0,0,0,0
183.15,0.077682,6.9527,0.0062067,0,0,0,0
185.65,0.08092,7.0233,0.0058777,0,0,0,0
188.15,0.087071,7.0969,0.0066012,0,0,0,0
190.65,0.092295,7.1651,0.0082776,0,0,0,0
193.15,0.096928,7.2326,0.0082776,0,0,0,0
195.65,0.10272,7.3006,0.0076209,0,0,0,0
198.15,0.10767,7.3669,0.0083104,0,0,0,0
200.65,0.11227,7.4331,0.0099513,0,0,0,0
203.15,0.11859,7.4976,0.010541,0,0,0,0
205.65,0.12544,7.5619,0.0096899,0,0,0,0
208.15,0.13096,7.6234,0.010246,0,0,0,0
210.65,0.13787,7.6841,0.012146,0,0,0,0
213.15,0.14373,7.745,0.012604,0,0,0,0
215.65,0.14882,7.8056,0.01195,0,0,0,0
218.15,0.15616,7.865,0.012376,0,0,0,0
220.65,0.16361,7.9224,0.014108,0,0,0,0
223.15,0.16995,7.9801,0.014893,0,0,0,0
225.65,0.17802,8.0341,0.014112,0,0,0,0
228.15,0.1848,8.0911,0.014634,0,0,0,0
230.65,0.19085,8.1446,0.016591,0,0,0,0
233.15,0.19932,8.1993,0.017273,0,0,0,0
235.65,0.20643,8.2503,0.017013,0,0,0,0
238.15,0.21411,8.3016,0.017436,0,0,0,0
240.65,0.2234,8.3526,0.018931,0,0,0,0
243.15,0.23078,8.4021,0.019809,0,0,0,0
245.65,0.23925,8.4517,0.019646,0,0,0,0
248.15,0.24785,8.5006,0.020359,0,0,0,0
250.65,0.25476,8.5484,0.021721,0,0,0,0
253.15,0.26409,8.5944,0.022303,0,0,0,0
255.65,0.27216,8.6411,0.022627,0,0,0,0
258.15,0.28106,8.687,0.023339,0,0,0,0
260.65,0.29102,8.7319,0.024342,0,0,0,0
263.15,0.29939,8.776,0.025246,0,0,0,0
265.65,0.30948,8.8194,0.025666,0,0,0,0
268.15,0.31854,8.8626,0.026795,0,0,0,0
270.65,0.32671,8.9034,0.027472,0,0,0,0
273.15,0.33696,8.9461,0.028052,0,0,0,0
275.65,0.3451,8.9861,0.029018,0,0,0,0
278.15,0.35522,9.0273,0.03008,0,0,0,0
280.65,0.36512,9.066,0.030657,0,0,0,0
283.15,0.37451,9.1046,0.031525,0,0,0,0
285.65,0.38602,9.1426,0.032615,0,0,0,0
288.15,0.39591,9.1801,0.033353,0,0,0,0
290.65,0.4065,9.2179,0.034344,0,0,0,0
293.15,0.41673,9.2541,0.035055,0,0,0,0
295.65,0.42573,9.2904,0.036174,0,0,0,0
298.15,0.43682,9.3249,0.036939,0,0,0,0
300.65,0.44562,9.3597,0.038184,0,0,0,0
303.15,0.45767,9.3934,0.039167,0,0,0,0
305.65,0.46813,9.4274,0.039962,0,0,0,0
308.15,0.47911,9.4609,0.041042,0,0,0,0
310.65,0.49119,9.4924,0.04222,0,0,0,0
313.15,0.50121,9.5246,0.043361,0,0,0,0
315.65,0.51345,9.5547,0.04412,0,0,0,0
318.15,0.52394,9.5866,0.045197,0,0,0,0
320.65,0.53538,9.6151,0.046685,0,0,0,0
323.15,0.54607,9.6463,0.047695,0,0,0,0
325.65,0.55696,9.6749,0.048484,0,0,0,0
328.15,0.569,9.7036,0.049747,0,0,0,0
330.65,0.57969,9.7324,0.051259,0,0,0,0
333.15,0.59306,9.7601,0.052364,0,0,0,0
335.65,0.60405,9.7886,0.053426,0,0,0,0
338.15,0.61616,9.8153,0.054743,0,0,0,0
340.65,0.62876,9.8419,0.056216,0,0,0,0
343.15,0.64054,9.8681,0.057217,0,0,0,0
345.65,0.65381,9.8927,0.058498,0,0,0,0
348.15,0.66533,9.9183,0.060091,0,0,0,0
350.65,0.67903,9.9421,0.061462,0,0,0,0
353.15,0.69058,9.966,0.062459,0,0,0,0
355.65,0.70338,9.9899,0.063702,0,0,0,0
358.15,0.71603,10.013,0.06541,0,0,0,0
360.65,0.72821,10.035,0.066899,0,0,0,0
363.15,0.74144,10.057,0.067952,0,0,0,0
365.65,0.75312,10.078,0.069561,0,0,0,0
368.15,0.76709,10.1,0.071135,0,0,0,0
370.65,0.779,10.12,0.072552,0,0,0,0
373.15,0.79287,10.141,0.074277,0,0,0,0
375.65,0.80551,10.16,0.075874,0,0,0,0
378.15,0.81868,10.18,0.077318,0,0,0,0
380.65,0.83272,10.198,0.079064,0,0,0,0
383.15,0.84609,10.217,0.08099,0,0,0,0
385.65,0.86025,10.235,0.082728,0,0,0,0
388.15,0.87146,10.252,0.084229,0,0,0,0
390.65,0.88773,10.269,0.086045,0,0,0,0
393.15,0.90068,10.285,0.087783,0,0,0,0
395.64,0.91531,10.301,0.089449,0,0,0,0
398.15,0.92836,10.317,0.091475,0,0,0,0
400.65,0.94338,10.332,0.093379,0,0,0,0
403.15,0.9558,10.347,0.095337,0,0,0,0
405.64,0.97095,10.361,0.097653,0,0,0,0
408.15,0.98465,10.374,0.09954,0,0,0,0
410.65,0.99954,10.388,0.10161,0,0,0,0
413.14,1.0135,10.401,0.104,0,0,0,0
415.65,1.0279,10.413,0.10615,0,0,0,0
418.14,1.0424,10.425,0.10841,0,0,0,0
420.65,1.0571,10.436,0.11069,0,0,0,0
423.15,1.072,10.447,0.11327,0,0,0,0
425.64,1.0862,10.456,0.11543,0,0,0,0
428.15,1.1016,10.466,0.11814,0,0,0,0
430.64,1.116,10.475,0.12069,0,0,0,0
433.14,1.1317,10.484,0.1231,0,0,0,0
435.64,1.1456,10.492,0.12555,0,0,0,0
438.14,1.1621,10.499,0.12838,0,0,0,0
440.64,1.1758,10.506,0.1312,0,0,0,0
443.15,1.1919,10.513,0.13407,0,0,0,0
445.64,1.2066,10.519,0.13702,0,0,0,0
448.14,1.2228,10.524,0.14011,0,0,0,0
450.64,1.2375,10.528,0.14327,0,0,0,0
453.14,1.2538,10.533,0.14659,0,0,0,0
455.64,1.2691,10.536,0.14974,0,0,0,0
458.14,1.2852,10.539,0.15335,0,0,0,0
460.64,1.3007,10.541,0.15695,0,0,0,0
463.14,1.3174,10.543,0.16015,0,0,0,0
465.64,1.3331,10.544,0.16378,0,0,0,0
468.14,1.3495,10.543,0.16754,0,0,0,0
470.64,1.3653,10.543,0.17159,0,0,0,0
473.14,1.3818,10.542,0.17563,0,0,0,0
475.64,1.3982,10.54,0.17989,0,0,0,0
478.14,1.4146,10.536,0.18417,0,0,0,0
480.64,1.4314,10.533,0.18865,0,0,0,0
483.14,1.4481,10.528,0.19314,0,0,0,0
485.64,1.4645,10.522,0.1979,0,0,0,0
488.14,1.4817,10.516,0.20235,0,0,0,0
490.64,1.4986,10.508,0.20745,0,0,0,0
493.14,1.5157,10.5,0.21247,0,0,0,0
495.64,1.5325,10.491,0.21797,0,0,0,0
498.14,1.55,10.48,0.22354,0,0,0,0
500.64,1.5667,10.468,0.2289,0,0,0,0
503.14,1.5842,10.456,0.23434,0,0,0,0
505.64,1.6009,10.442,0.23998,0,0,0,0
508.14,1.6189,10.426,0.24632,0,0,0,0
510.64,1.6355,10.411,0.25205,0,0,0,0
513.14,1.6538,10.395,0.25821,0,0,0,0
515.64,1.6708,10.377,0.26504,0,0,0,0
518.14,1.6892,10.356,0.27182,0,0,0,0
520.64,1.7062,10.336,0.27836,0,0,0,0
523.14,1.7249,10.313,0.28553,0,0,0,0
525.64,1.7422,10.29,0.29258,0,0,0,0
528.14,1.7615,10.265,0.29974,0,0,0,0
530.64,1.7785,10.238,0.30703,0,0,0,0
533.14,1.798,10.209,0.31513,0,0,0,0
535.64,1.8156,10.177,0.32383,0,0,0,0
538.14,1.8349,10.145,0.33121,0,0,0,0
540.64,1.8533,10.111,0.33957,0,0,0,0
543.14,1.8724,10.073,0.34807,0,0,0,0
545.64,1.8906,10.035,0.35624,0,0,0,0
548.14,1.9101,9.993,0.36465,0,0,0,0
550.64,1.9296,9.9484,0.37312,0,0,0,0
553.14,1.9483,9.9003,0.3817,0,0,0,0
555.64,1.9681,9.851,0.39093,0,0,0,0
558.14,1.987,9.7981,0.4002,0,0,0,0
560.64,2.0078,9.7419,0.40969,0,0,0,0
563.14,2.0268,9.679,0.41986,0,0,0,0
565.64,2.0481,9.6134,0.43005,0,0,0,0
568.14,2.0675,9.5399,0.44023,0,0,0,0
570.64,2.0886,9.464,0.45119,0,0,0,0
573.14,2.11,9.3801,0.46201,0,0,0,0
575.64,2.1315,9.289,0.4736,0,0,0,0
578.14,2.1547,9.1881,0.48439,0,0,0,0
580.64,2.177,9.075,0.49645,0,0,0,0
583.14,2.2023,8.9477,0.50889,0,0,0,0
583.64,2.2075,8.9214,0.51161,0,0,0,0

File: NT6_90_1.csv
Time[s],Displacement[mm],Force[kN],AxStrain_1,AxStrain_2,Thickness[mm],OuterWidth[mm],InnerWidth[mm]
0.6,0,-0.020007,0,0,1.5202,20,10
3.1,0.000682,0.050564,-3.5001e-05,0,0,0,0
5.6,0.000827,0.17743,3.3999e-05,0,0,0,0
8.1,0.001282,0.26271,-4.8001e-05,0,0,0,0
10.6,0.001618,0.35743,0.00015199,0,0,0,0
13.1,0.002207,0.44756,5.3999e-05,0,0,0,0
15.6,0.002281,0.53943,-4.0001e-05,0,0,0,0
18.1,0.002542,0.62956,3.2999e-05,0,0,0,0
20.6,0.00285,0.72786,0.00015599,0,0,0,0
23.1,0.003622,0.82657,0.00030095,0,0,0,0
25.6,0.004519,0.92886,0.00018198,0,0,0,0
28.1,0.004307,1.029,0.00012599,0,0,0,0
30.6,0.004433,1.1304,6.2998e-05,0,0,0,0
33.1,0.005111,1.2343,0.00011299,0,0,0,0
35.6,0.006409,1.335,0.00039092,0,0,0,0
38.1,0.005966,1.438,0.00023197,0,0,0,0
40.6,0.006075,1.5394,0.00012599,0,0,0,0
43.1,0.006734,1.6426,0.00029096,0,0,0,0
45.6,0.008021,1.7434,0.00031095,0,0,0,0
48.1,0.008061,1.8426,0.00041092,0,0,0,0
50.6,0.007687,1.9451,0.00036393,0,0,0,0
53.1,0.008227,2.044,0.00015199,0,0,0,0
55.6,0.009617,2.1447,0.00037393,0,0,0,0
58.1,0.009981,2.2429,0.00017199,0,0,0,0
60.6,0.00961,2.343,0.00038693,0,0,0,0
63.1,0.009928,2.4396,0.00037093,0,0,0,0
65.6,0.010988,2.5383,0.0006288,0,0,0,0
68.1,0.012302,2.6377,0.00026496,0,0,0,0
70.6,0.011683,2.7397,0.00021798,0,0,0,0
73.1,0.011693,2.8404,0.00033095,0,0,0,0
75.59,0.012865,2.94,0.00052586,0,0,0,0
78.1,0.014477,3.0399,0.00034794,0,0,0,0
80.59,0.013815,3.1349,0.00056284,0,0,0,0
83.1,0.013431,3.2379,0.00018898,0,0,0,0
85.6,0.014821,3.3357,0.00034394,0,0,0,0
88.1,0.016612,3.4381,0.00042391,0,0,0,0
90.59,0.015963,3.535,0.00057284,0,0,0,0
93.09,0.015368,3.6334,0.00028796,0,0,0,0
95.59,0.016725,3.7317,0.0004399,0,0,0,0
98.09,0.018645,3.8286,0.00071774,0,0,0,0
100.59,0.018731,3.928,0.00069176,0,0,0,0
103.09,0.018066,4.0264,0.00064179,0,0,0,0
105.59,0.019191,4.1259,0.00059882,0,0,0,0
108.09,0.021065,4.2216,0.00085663,0,0,0,0
110.59,0.021518,4.3196,0.0008936,0,0,0,0
113.1,0.021088,4.4157,0.00066178,0,0,0,0
115.59,0.022015,4.5134,0.00079468,0,0,0,0
118.1,0.024001,4.6107,0.0010914,0,0,0,0
120.59,0.024664,4.7053,0.0010584,0,0,0,0
123.09,0.02463,4.8011,0.00086063,0,0,0,0
125.59,0.025259,4.8926,0.00099251,0,0,0,0
128.09,0.02718,4.9913,0.0010914,0,0,0,0
130.59,0.028338,5.0841,0.0010584,0,0,0,0
133.09,0.028736,5.1801,0.00086063,0,0,0,0
135.59,0.029596,5.2726,0.0011254,0,0,0,0
138.09,0.031186,5.3651,0.0011913,0,0,0,0
140.59,0.032775,5.4577,0.0013561,0,0,0,0
143.09,0.034,5.5499,0.0014559,0,0,0,0
145.59,0.035456,5.6446,0.0012243,0,0,0,0
148.09,0.036747,5.7359,0.0015548,0,0,0,0
150.59,0.03837,5.8273,0.001984,0,0,0,0
153.09,0.040687,5.9163,0.0018523,0,0,0,0
155.59,0.043567,6.0046,0.0019511,0,0,0,0
158.09,0.045421,6.0914,0.0023482,0,0,0,0
160.59,0.046977,6.178,0.00281,0,0,0,0
163.09,0.050718,6.2639,0.0029417,0,0,0,0
165.59,0.054426,6.3461,0.0027771,0,0,0,0
168.09,0.056942,6.4291,0.0030743,0,0,0,0
170.59,0.059359,6.5079,0.0040966,0,0,0,0
173.09,0.06363,6.5907,0.0041633,0,0,0,0
175.59,0.067238,6.667,0.0038994,0,0,0,0
178.09,0.071343,6.7464,0.00446,0,0,0,0
180.59,0.075945,6.8201,0.0054481,0,0,0,0
183.09,0.079852,6.8939,0.0056122,0,0,0,0
185.59,0.083593,6.9663,0.0054481,0,0,0,0
188.09,0.089155,7.0377,0.0060407,0,0,0,0
190.59,0.094585,7.1091,0.0073559,0,0,0,0
193.09,0.099451,7.1779,0.0077171,0,0,0,0
195.59,0.10495,7.2471,0.0072904,0,0,0,0
198.09,0.11051,7.313,0.0076844,0,0,0,0
200.59,0.11518,7.3779,0.0091619,0,0,0,0
203.09,0.12094,7.4413,0.009785,0,0,0,0
205.59,0.12772,7.506,0.0092273,0,0,0,0
208.09,0.13352,7.5696,0.0096216,0,0,0,0
210.59,0.13997,7.6294,0.011129,0,0,0,0
213.09,0.14653,7.6919,0.011946,0,0,0,0
215.59,0.15189,7.7501,0.011096,0,0,0,0
218.09,0.15908,7.8114,0.011685,0,0,0,0
220.59,0.16649,7.8693,0.013418,0,0,0,0
223.09,0.17315,7.9279,0.014005,0,0,0,0
225.59,0.18136,7.983,0.013451,0,0,0,0
228.09,0.18834,8.0386,0.013909,0,0,0,0
230.59,0.1951,8.0936,0.015605,0,0,0,0
233.09,0.20304,8.1471,0.016322,0,0,0,0
235.59,0.20973,8.2,0.015638,0,0,0,0
238.09,0.21725,8.2516,0.016355,0,0,0,0
240.59,0.22612,8.3031,0.017754,0,0,0,0
243.09,0.23406,8.3524,0.018632,0,0,0,0
245.59,0.24261,8.4007,0.018372,0,0,0,0
248.09,0.25125,8.449,0.018859,0,0,0,0
250.59,0.25863,8.4976,0.020386,0,0,0,0
253.09,0.26754,8.545,0.021423,0,0,0,0
255.59,0.27558,8.5911,0.021293,0,0,0,0
258.09,0.28416,8.6373,0.021617,0,0,0,0
260.59,0.29389,8.6814,0.023074,0,0,0,0
263.09,0.30246,8.7267,0.024045,0,0,0,0
265.59,0.3124,8.7701,0.024238,0,0,0,0
268.09,0.32196,8.8139,0.024691,0,0,0,0
270.59,0.33077,8.8556,0.026143,0,0,0,0
273.09,0.3408,8.897,0.027046,0,0,0,0
275.59,0.34934,8.9379,0.027336,0,0,0,0
278.09,0.35861,8.9781,0.028109,0,0,0,0
280.59,0.36881,9.018,0.02917,0,0,0,0
283.09,0.37801,9.0576,0.030071,0,0,0,0
285.59,0.38897,9.0957,0.030713,0,0,0,0
288.09,0.39881,9.1329,0.031387,0,0,0,0
290.59,0.40914,9.1701,0.032511,0,0,0,0
293.09,0.41973,9.2071,0.033503,0,0,0,0
295.59,0.42937,9.2436,0.034143,0,0,0,0
298.09,0.44023,9.2801,0.034944,0,0,0,0
300.59,0.44963,9.3144,0.035871,0,0,0,0
303.09,0.46016,9.3496,0.03702,0,0,0,0
305.59,0.47128,9.3824,0.037754,0,0,0,0
308.09,0.48161,9.4176,0.038742,0,0,0,0
310.59,0.49343,9.4494,0.039762,0,0,0,0
313.09,0.50383,9.4823,0.040812,0,0,0,0
315.59,0.51568,9.5131,0.041828,0,0,0,0
318.09,0.52677,9.5443,0.042622,0,0,0,0
320.59,0.53776,9.5749,0.043794,0,0,0,0
323.09,0.54985,9.6049,0.044839,0,0,0,0
325.59,0.56011,9.6359,0.04601,0,0,0,0
328.09,0.57229,9.6646,0.047053,0,0,0,0
330.59,0.58298,9.6947,0.048252,0,0,0,0
333.09,0.59484,9.7229,0.049481,0,0,0,0
335.59,0.60659,9.7507,0.050553,0,0,0,0
338.09,0.61795,9.7781,0.051904,0,0,0,0
340.59,0.63079,9.8064,0.052689,0,0,0,0
343.09,0.64238,9.8341,0.054009,0,0,0,0
345.59,0.65539,9.8601,0.055421,0,0,0,0
348.09,0.66728,9.886,0.056765,0,0,0,0
350.59,0.67986,9.9107,0.057734,0,0,0,0
353.09,0.69287,9.9359,0.059046,0,0,0,0
355.59,0.70486,9.9597,0.060418,0,0,0,0
358.09,0.71813,9.9836,0.06185,0,0,0,0
360.59,0.72985,10.006,0.06297,0,0,0,0
363.09,0.7431,10.028,0.064027,0,0,0,0
365.59,0.75492,10.05,0.065794,0,0,0,0
368.09,0.76803,10.073,0.067127,0,0,0,0
370.59,0.78024,10.093,0.068365,0,0,0,0
373.09,0.79263,10.115,0.069756,0,0,0,0
375.59,0.80547,10.135,0.07139,0,0,0,0
378.09,0.81766,10.154,0.072807,0,0,0,0
380.59,0.8312,10.174,0.074255,0,0,0,0
383.09,0.84315,10.193,0.075882,0,0,0,0
385.59,0.85742,10.211,0.077323,0,0,0,0
388.09,0.8697,10.229,0.078579,0,0,0,0
390.59,0.88331,10.247,0.080384,0,0,0,0
393.09,0.89622,10.265,0.081848,0,0,0,0
395.59,0.9097,10.281,0.083737,0,0,0,0
398.09,0.92327,10.297,0.085107,0,0,0,0
400.59,0.93625,10.313,0.08681,0,0,0,0
403.09,0.95062,10.329,0.088811,0,0,0,0
405.59,0.9632,10.344,0.090446,0,0,0,0
408.09,0.97777,10.358,0.092289,0,0,0,0
410.59,0.99061,10.373,0.094008,0,0,0,0
413.09,1.0055,10.388,0.096176,0,0,0,0
415.59,1.0187,10.4,0.097919,0,0,0,0
418.09,1.0332,10.413,0.09987,0,0,0,0
420.59,1.0465,10.426,0.10211,0,0,0,0
423.09,1.0602,10.438,0.10417,0,0,0,0
425.59,1.0744,10.45,0.10617,0,0,0,0
428.09,1.088,10.461,0.10834,0,0,0,0
430.59,1.1027,10.472,0.11063,0,0,0,0
433.09,1.1164,10.482,0.11279,0,0,0,0
435.59,1.1313,10.492,0.11536,0,0,0,0
438.09,1.1449,10.501,0.11742,0,0,0,0
440.59,1.16,10.51,0.11963,0,0,0,0
443.09,1.1737,10.519,0.12192,0,0,0,0
445.59,1.1889,10.528,0.12464,0,0,0,0
448.09,1.2032,10.535,0.12715,0,0,0,0
450.59,1.2189,10.542,0.12986,0,0,0,0
453.09,1.2334,10.549,0.1327,0,0,0,0
455.59,1.2489,10.555,0.13517,0,0,0,0
458.09,1.2636,10.56,0.13825,0,0,0,0
460.59,1.2788,10.565,0.14131,0,0,0,0
463.09,1.2943,10.57,0.14418,0,0,0,0
465.59,1.3093,10.574,0.14735,0,0,0,0
468.09,1.3251,10.577,0.15061,0,0,0,0
470.59,1.3404,10.58,0.15371,0,0,0,0
473.09,1.3565,10.582,0.15714,0,0,0,0
475.59,1.3716,10.583,0.16072,0,0,0,0
478.09,1.388,10.584,0.16463,0,0,0,0
480.59,1.4036,10.585,0.16794,0,0,0,0
483.09,1.4201,10.585,0.17172,0,0,0,0
485.59,1.4356,10.584,0.1755,0,0,0,0
488.09,1.4525,10.582,0.1798,0,0,0,0
490.59,1.4684,10.579,0.18435,0,0,0,0
493.09,1.4856,10.576,0.18836,0,0,0,0
495.59,1.5017,10.572,0.19277,0,0,0,0
498.09,1.5187,10.566,0.19748,0,0,0,0
500.59,1.5349,10.56,0.20215,0,0,0,0
503.09,1.552,10.553,0.20693,0,0,0,0
505.59,1.5683,10.546,0.21184,0,0,0,0
508.09,1.5857,10.537,0.21708,0,0,0,0
510.59,1.6021,10.527,0.22242,0,0,0,0
513.09,1.6196,10.517,0.22771,0,0,0,0
515.59,1.6359,10.505,0.2332,0,0,0,0
518.09,1.6537,10.493,0.23906,0,0,0,0
520.59,1.6706,10.479,0.24501,0,0,0,0
523.09,1.6886,10.465,0.2509,0,0,0,0
525.59,1.7054,10.448,0.25738,0,0,0,0
528.09,1.7236,10.431,0.26365,0,0,0,0
530.59,1.7409,10.413,0.27043,0,0,0,0
533.09,1.7589,10.393,0.27728,0,0,0,0
535.59,1.7768,10.371,0.28435,0,0,0,0
538.09,1.7947,10.348,0.29131,0,0,0,0
540.59,1.8129,10.325,0.29883,0,0,0,0
543.09,1.8307,10.297,0.30629,0,0,0,0
545.59,1.8495,10.271,0.31406,0,0,0,0
548.09,1.867,10.241,0.32211,0,0,0,0
550.59,1.8859,10.212,0.33033,0,0,0,0
553.09,1.9036,10.178,0.33865,0,0,0,0
555.59,1.9232,10.146,0.34695,0,0,0,0
558.09,1.9412,10.108,0.35553,0,0,0,0
560.59,1.9606,10.069,0.3645,0,0,0,0
563.09,1.979,10.027,0.37327,0,0,0,0
565.59,1.9991,9.983,0.38265,0,0,0,0
568.09,2.018,9.9366,0.39176,0,0,0,0
570.59,2.0378,9.8841,0.40132,0,0,0,0
573.09,2.0576,9.8323,0.41061,0,0,0,0
575.59,2.0774,9.7717,0.42115,0,0,0,0
578.09,2.098,9.7091,0.43151,0,0,0,0
580.59,2.1175,9.6391,0.44275,0,0,0,0
583.09,2.1394,9.563,0.4542,0,0,0,0
583.59,2.1468,9.5441,0.45943,0,0,0,0