Folder: ethz/lab_data/DP600_results/DATA (part 2)

File: NT6_00_1.csv
Time[s],Displacement[mm],Force[kN],AxStrain_1,AxStrain_2,Thickness[mm],OuterWidth[mm],InnerWidth[mm]
0.67,0,-0.016022,0,0,1.5245,20,10.854
3.17,0.000634,0.050154,0.00024997,0,0,0,0
5.67,0.001023,0.17671,-7.0002e-05,0,0,0,0
8.17,0.001018,0.26643,-0.00011601,0,0,0,0
10.67,0.001462,0.35756,-0.00013501,0,0,0,0
13.17,0.002004,0.45129,-3.5001e-05,0,0,0,0
15.67,0.002314,0.54185,7e-06,0,0,0,0
18.17,0.002374,0.63543,0.00018198,0,0,0,0
20.67,0.00284,0.73299,-4.6001e-05,0,0,0,0
23.17,0.003287,0.83315,4.2999e-05,0,0,0,0
25.67,0.004482,0.93485,0.00021898,0,0,0,0
28.17,0.004175,1.0357,0.00026496,0,0,0,0
30.67,0.004234,1.138,0.00023497,0,0,0,0
33.17,0.005092,1.241,0.00021498,0,0,0,0
35.67,0.005999,1.3446,0.00027796,0,0,0,0
38.17,0.00622,1.447,0.0004569,0,0,0,0
40.67,0.006028,1.5476,0.00033794,0,0,0,0
43.17,0.006548,1.6514,0.00032395,0,0,0,0
45.67,0.008223,1.7534,0.00038093,0,0,0,0
48.17,0.008035,1.8571,0.00057583,0,0,0,0
50.67,0.00779,1.9546,0.00033794,0,0,0,0
53.17,0.008551,2.0569,0.00027096,0,0,0,0
55.67,0.009806,2.1567,0.00040392,0,0,0,0
58.17,0.010511,2.2583,0.00076771,0,0,0,0
60.67,0.009829,2.3593,0.00029096,0,0,0,0
63.17,0.01019,2.4597,0.00041391,0,0,0,0
65.67,0.011955,2.5607,0.00035094,0,0,0,0
68.17,0.013004,2.6591,0.00048988,0,0,0,0
70.67,0.011941,2.7599,0.0004399,0,0,0,0
73.17,0.012157,2.859,0.00042991,0,0,0,0
75.67,0.01415,2.9607,0.00038693,0,0,0,0
78.17,0.015067,3.0606,0.0006318,0,0,0,0
80.67,0.014269,3.1599,0.00058283,0,0,0,0
83.17,0.014146,3.2597,0.00029796,0,0,0,0
85.67,0.016523,3.3569,0.00047988,0,0,0,0
88.17,0.017626,3.4586,0.00060282,0,0,0,0
90.67,0.016828,3.5554,0.00049288,0,0,0,0
93.17,0.016828,3.6561,0.0006288,0,0,0,0
95.67,0.018864,3.752,0.00051287,0,0,0,0
98.17,0.020244,3.8499,0.0011284,0,0,0,0
100.67,0.019771,3.9477,0.00083065,0,0,0,0
103.17,0.01943,4.0436,0.00066878,0,0,0,0
105.67,0.021334,4.142,0.00061881,0,0,0,0
108.17,0.023005,4.2381,0.00091358,0,0,0,0
110.67,0.022926,4.3353,0.0011254,0,0,0,0
113.17,0.022711,4.429,0.00079468,0,0,0,0
115.67,0.024333,4.5241,0.00092657,0,0,0,0
118.17,0.026088,4.6187,0.0013561,0,0,0,0
120.67,0.026518,4.7154,0.0011913,0,0,0,0
123.17,0.026584,4.8107,0.0010924,0,0,0,0
125.67,0.028173,4.9039,0.0010255,0,0,0,0
128.17,0.029895,4.9981,0.0012902,0,0,0,0
130.67,0.030888,5.0869,0.0017205,0,0,0,0
133.17,0.031782,5.1806,0.0013231,0,0,0,0
135.67,0.033305,5.2697,0.0012902,0,0,0,0
138.17,0.034431,5.3621,0.0014889,0,0,0,0
140.67,0.035822,5.4496,0.002018,0,0,0,0
143.17,0.03794,5.5384,0.0018193,0,0,0,0
145.67,0.039761,5.6264,0.0015877,0,0,0,0
148.17,0.040854,5.7136,0.0019182,0,0,0,0
150.67,0.042741,5.8016,0.0026784,0,0,0,0
153.17,0.045919,5.8861,0.0023812,0,0,0,0
155.67,0.048799,5.9699,0.0025458,0,0,0,0
158.17,0.049892,6.051,0.0032726,0,0,0,0
160.67,0.052342,6.1319,0.0035696,0,0,0,0
163.17,0.056844,6.2106,0.0036354,0,0,0,0
165.67,0.05999,6.2903,0.003735,0,0,0,0
168.17,0.06287,6.3681,0.0043605,0,0,0,0
170.67,0.066777,6.4429,0.0053497,0,0,0,0
173.17,0.070551,6.5179,0.0049875,0,0,0,0
175.67,0.074193,6.5881,0.005086,0,0,0,0
178.17,0.079491,6.6617,0.0060735,0,0,0,0
180.67,0.084622,6.731,0.007061,0,0,0,0
183.17,0.088099,6.8034,0.0068306,0,0,0,0
185.67,0.092436,6.8724,0.0070282,0,0,0,0
188.17,0.098164,6.9406,0.0076199,0,0,0,0
190.67,0.103,7.0083,0.0089657,0,0,0,0
193.17,0.10899,7.0744,0.0087367,0,0,0,0
195.67,0.11535,7.1411,0.008704,0,0,0,0
198.17,0.11978,7.2049,0.0096552,0,0,0,0
200.67,0.12511,7.2691,0.010802,0,0,0,0
203.17,0.132,7.3307,0.010801,0,0,0,0
205.67,0.1375,7.3921,0.01054,0,0,0,0
208.17,0.14428,7.4526,0.011784,0,0,0,0
210.67,0.15177,7.5146,0.012994,0,0,0,0
213.17,0.15733,7.5743,0.012667,0,0,0,0
215.67,0.16421,7.6311,0.012635,0,0,0,0
218.17,0.17103,7.6899,0.013745,0,0,0,0
220.67,0.17733,7.7447,0.015019,0,0,0,0
223.17,0.18517,7.802,0.015181,0,0,0,0
225.67,0.19318,7.8566,0.014986,0,0,0,0
228.17,0.2001,7.9126,0.01603,0,0,0,0
230.67,0.20858,7.9657,0.017332,0,0,0,0
233.17,0.2156,8.0176,0.017462,0,0,0,0
235.67,0.22235,8.0696,0.017626,0,0,0,0
238.17,0.23119,8.1201,0.018634,0,0,0,0
240.67,0.23871,8.1703,0.019933,0,0,0,0
243.17,0.24732,8.2186,0.020063,0,0,0,0
245.67,0.25635,8.2674,0.020161,0,0,0,0
248.17,0.26407,8.3147,0.021328,0,0,0,0
250.67,0.27324,8.3604,0.022495,0,0,0,0
253.17,0.28135,8.4079,0.022754,0,0,0,0
255.67,0.28936,8.4534,0.022916,0,0,0,0
258.17,0.2991,8.4981,0.024081,0,0,0,0
260.67,0.30724,8.5421,0.025244,0,0,0,0
263.17,0.31651,8.5863,0.025535,0,0,0,0
265.67,0.32681,8.6286,0.026083,0,0,0,0
268.17,0.33535,8.6703,0.026953,0,0,0,0
270.67,0.34601,8.7124,0.027952,0,0,0,0
273.17,0.35499,8.7531,0.028498,0,0,0,0
275.67,0.36452,8.7933,0.028853,0,0,0,0
278.17,0.37442,8.8326,0.030138,0,0,0,0
280.67,0.38296,8.872,0.031133,0,0,0,0
283.17,0.39386,8.9101,0.031711,0,0,0,0
285.67,0.40326,8.9467,0.032385,0,0,0,0
288.17,0.41369,8.9849,0.033537,0,0,0,0
290.67,0.42462,9.0211,0.034561,0,0,0,0
293.17,0.43432,9.0571,0.035105,0,0,0,0
295.67,0.44571,9.0924,0.036031,0,0,0,0
298.17,0.45594,9.128,0.036925,0,0,0,0
300.67,0.46676,9.1619,0.037913,0,0,0,0
303.17,0.47776,9.1966,0.038774,0,0,0,0
305.67,0.48706,9.2294,0.039443,0,0,0,0
308.17,0.49895,9.2626,0.040715,0,0,0,0
310.67,0.50895,9.2939,0.042017,0,0,0,0
313.17,0.52067,9.3253,0.042717,0,0,0,0
315.67,0.53186,9.3567,0.043509,0,0,0,0
318.17,0.54279,9.3861,0.044904,0,0,0,0
320.67,0.55497,9.4166,0.04601,0,0,0,0
323.17,0.56563,9.446,0.04718,0,0,0,0
325.67,0.57801,9.4754,0.047844,0,0,0,0
328.17,0.58904,9.5031,0.049139,0,0,0,0
330.67,0.60053,9.5307,0.050493,0,0,0,0
333.17,0.61248,9.5593,0.051563,0,0,0,0
335.67,0.62328,9.5869,0.052852,0,0,0,0
338.17,0.63576,9.6131,0.053826,0,0,0,0
340.67,0.64655,9.6394,0.055456,0,0,0,0
343.17,0.65936,9.6663,0.056396,0,0,0,0
345.67,0.67105,9.6909,0.057617,0,0,0,0
348.17,0.68377,9.7163,0.059117,0,0,0,0
350.67,0.69635,9.7404,0.060303,0,0,0,0
353.17,0.7084,9.7643,0.06186,0,0,0,0
355.67,0.72178,9.787,0.063353,0,0,0,0
358.17,0.73353,9.8109,0.064751,0,0,0,0
360.67,0.74721,9.8324,0.065961,0,0,0,0
363.17,0.75903,9.8549,0.067417,0,0,0,0
365.67,0.7725,9.8764,0.068715,0,0,0,0
368.17,0.78482,9.8976,0.070197,0,0,0,0
370.67,0.79767,9.9184,0.07177,0,0,0,0
373.17,0.81098,9.939,0.073279,0,0,0,0
375.67,0.82303,9.959,0.07494,0,0,0,0
378.17,0.83694,9.978,0.076323,0,0,0,0
380.67,0.84896,9.9967,0.077793,0,0,0,0
383.17,0.86313,10.016,0.079385,0,0,0,0
385.67,0.87525,10.034,0.080823,0,0,0,0
388.17,0.88932,10.051,0.082468,0,0,0,0
390.67,0.90216,10.068,0.084176,0,0,0,0
393.17,0.916,10.085,0.085879,0,0,0,0
395.67,0.92961,10.101,0.087305,0,0,0,0
398.17,0.94299,10.117,0.089578,0,0,0,0
400.67,0.95746,10.133,0.091664,0,0,0,0
403.17,0.97033,10.147,0.093082,0,0,0,0
405.67,0.98504,10.162,0.094889,0,0,0,0
408.17,0.99818,10.176,0.096846,0,0,0,0
410.67,1.0133,10.191,0.099158,0,0,0,0
413.17,1.0265,10.203,0.10086,0,0,0,0
415.67,1.0414,10.216,0.10299,0,0,0,0
418.17,1.0552,10.229,0.10517,0,0,0,0
420.67,1.07,10.24,0.10725,0,0,0,0
423.17,1.084,10.252,0.10948,0,0,0,0
425.67,1.0984,10.263,0.11182,0,0,0,0
428.17,1.1132,10.273,0.11428,0,0,0,0
430.67,1.1267,10.284,0.11684,0,0,0,0
433.17,1.1424,10.293,0.11923,0,0,0,0
435.67,1.1561,10.302,0.12166,0,0,0,0
438.17,1.1715,10.31,0.12433,0,0,0,0
440.67,1.1855,10.319,0.12675,0,0,0,0
443.17,1.2011,10.326,0.1292,0,0,0,0
445.66,1.2151,10.333,0.13208,0,0,0,0
448.17,1.2308,10.34,0.13471,0,0,0,0
450.66,1.2451,10.346,0.13723,0,0,0,0
453.16,1.2612,10.353,0.14034,0,0,0,0
455.66,1.2759,10.358,0.14347,0,0,0,0
458.16,1.292,10.362,0.14645,0,0,0,0
460.66,1.3066,10.366,0.14991,0,0,0,0
463.17,1.3232,10.369,0.15298,0,0,0,0
465.66,1.338,10.372,0.1561,0,0,0,0
468.16,1.3548,10.375,0.15983,0,0,0,0
470.66,1.3697,10.376,0.16358,0,0,0,0
473.16,1.3864,10.377,0.16726,0,0,0,0
475.66,1.4019,10.377,0.17086,0,0,0,0
478.16,1.4184,10.378,0.17474,0,0,0,0
480.66,1.4343,10.376,0.17873,0,0,0,0
483.16,1.4509,10.374,0.18255,0,0,0,0
485.66,1.467,10.373,0.18684,0,0,0,0
488.16,1.4839,10.369,0.19112,0,0,0,0
490.66,1.4999,10.365,0.19548,0,0,0,0
493.16,1.517,10.361,0.20035,0,0,0,0
495.66,1.5332,10.355,0.20473,0,0,0,0
498.16,1.5505,10.349,0.20963,0,0,0,0
500.66,1.567,10.342,0.21453,0,0,0,0
503.16,1.5844,10.333,0.21959,0,0,0,0
505.66,1.6008,10.324,0.22482,0,0,0,0
508.16,1.6184,10.314,0.23009,0,0,0,0
510.66,1.6349,10.304,0.23555,0,0,0,0
513.16,1.6526,10.292,0.24147,0,0,0,0
515.66,1.669,10.28,0.24731,0,0,0,0
518.16,1.6869,10.266,0.25306,0,0,0,0
520.66,1.7035,10.252,0.25898,0,0,0,0
523.16,1.7215,10.237,0.26515,0,0,0,0
525.66,1.7383,10.219,0.27153,0,0,0,0
528.16,1.757,10.202,0.27797,0,0,0,0
530.66,1.7737,10.182,0.28462,0,0,0,0
533.16,1.7925,10.162,0.2916,0,0,0,0
535.66,1.8096,10.14,0.29831,0,0,0,0
538.16,1.8285,10.117,0.30556,0,0,0,0
540.66,1.8456,10.093,0.3127,0,0,0,0
543.16,1.8649,10.067,0.32035,0,0,0,0
545.66,1.8823,10.039,0.32795,0,0,0,0
548.16,1.9015,10.01,0.33586,0,0,0,0
550.66,1.9192,9.9786,0.34357,0,0,0,0
553.16,1.9384,9.9461,0.35209,0,0,0,0
555.66,1.9564,9.9116,0.36005,0,0,0,0
558.16,1.9755,9.8731,0.36826,0,0,0,0
560.66,1.9941,9.8349,0.37716,0,0,0,0
563.16,2.0131,9.7917,0.38605,0,0,0,0
565.66,2.0328,9.7486,0.39519,0,0,0,0
568.16,2.0515,9.7004,0.40384,0,0,0,0
570.66,2.072,9.6503,0.41333,0,0,0,0
573.16,2.0907,9.5943,0.42309,0,0,0,0
575.66,2.1114,9.535,0.43264,0,0,0,0
578.16,2.1307,9.4724,0.44288,0,0,0,0
580.66,2.1516,9.4054,0.45245,0,0,0,0
583.16,2.1714,9.3319,0.46338,0,0,0,0
585.66,2.1928,9.2519,0.4742,0,0,0,0
588.16,2.2145,9.1646,0.48574,0,0,0,0
590.66,2.2361,9.0677,0.49681,0,0,0,0
592.66,2.2589,8.9737,0.50913,0,0,0,0