Folder: ethz/polyN_optimization/DP780_results/DATA (part 4)

File: NT20_90_1.csv
Time[s],Displacement[mm],Force[kN],AxStrain_1,AxStrain_2,Thickness[mm],OuterWidth[mm],InnerWidth[mm]
0,0,-0.041208,0,0,1.4925,19.967,10.092
3,-0.000207,0.13017,-0.00020902,0,0,0,0
6,0.000954,0.26676,-4.0001e-05,0,0,0,0
9,0.001155,0.39573,9.9995e-05,0,0,0,0
12,0.001808,0.51624,4.0999e-05,0,0,0,0
15,0.001998,0.63474,-8.4004e-05,0,0,0,0
18,0.002788,0.75354,5.0999e-05,0,0,0,0
21,0.003019,0.86749,6.0998e-05,0,0,0,0
24,0.003883,0.98233,-0.00024003,0,0,0,0
27,0.004284,1.0918,-0.00010101,0,0,0,0
30,0.004516,1.199,0.00010099,0,0,0,0
33,0.005628,1.3,7.7997e-05,0,0,0,0
36,0.005511,1.404,0,0,0,0,0
39,0.005601,1.5033,7.0997e-05,0,0,0,0
42,0.006576,1.6046,0.00012499,0,0,0,0
45,0.007557,1.7029,-0.00018902,0,0,0,0
48,0.007387,1.7966,-0.00018202,0,0,0,0
51,0.007935,1.8936,5.3999e-05,0,0,0,0
54,0.009416,1.9852,0.00036193,0,0,0,0
57,0.009528,2.0744,0.00024697,0,0,0,0
60,0.009279,2.1765,0.00019598,0,0,0,0
63,0.010129,2.2611,7e-06,0,0,0,0
66,0.011918,2.3525,0.00037893,0,0,0,0
69,0.011612,2.4412,0.00018298,0,0,0,0
72,0.011872,2.5306,0.00027096,0,0,0,0
75,0.012985,2.6255,0.00042291,0,0,0,0
78,0.014234,2.7089,0.00030795,0,0,0,0
81,0.013027,2.7943,0.00033594,0,0,0,0
84,0.013797,2.8779,0.00055185,0,0,0,0
87,0.015326,2.9676,0.00057983,0,0,0,0
90,0.015912,3.0505,0.00070175,0,0,0,0
93,0.015128,3.1365,0.00030595,0,0,0,0
96,0.016427,3.2237,0.00067777,0,0,0,0
99,0.018073,3.3114,0.00053286,0,0,0,0
102,0.01749,3.3955,0.0004449,0,0,0,0
105,0.017661,3.4822,0.00065778,0,0,0,0
108,0.019466,3.569,0.00085763,0,0,0,0
111,0.020575,3.6548,0.00088061,0,0,0,0
114,0.01977,3.7391,0.00050887,0,0,0,0
117,0.020531,3.8216,0.00064479,0,0,0,0
120,0.022173,3.9064,0.0007797,0,0,0,0
123,0.022631,3.9908,0.00081367,0,0,0,0
126,0.022416,4.0737,0.00074572,0,0,0,0
129,0.023484,4.1566,0.00088161,0,0,0,0
132,0.02499,4.238,0.0010834,0,0,0,0
135,0.025317,4.3182,0.00094955,0,0,0,0
138,0.025338,4.4019,0.0010504,0,0,0,0
141,0.026642,4.4854,0.00098352,0,0,0,0
144,0.027676,4.5696,0.0010175,0,0,0,0
147,0.027938,4.6489,0.0012542,0,0,0,0
150,0.028495,4.7303,0.0012562,0,0,0,0
153,0.029834,4.8105,0.0011533,0,0,0,0
156,0.03077,4.8937,0.0018643,0,0,0,0
159,0.030194,4.9744,0.0012552,0,0,0,0
162,0.032206,5.0523,0.0013561,0,0,0,0
165,0.032941,5.1356,0.0014579,0,0,0,0
168,0.034013,5.2182,0.0016596,0,0,0,0
171,0.034883,5.2989,0.001424,0,0,0,0
174,0.035683,5.3794,0.001424,0,0,0,0
177,0.036415,5.4607,0.0016267,0,0,0,0
180,0.03742,5.5417,0.0017634,0,0,0,0
183,0.038524,5.6226,0.0014949,0,0,0,0
186,0.039869,5.7013,0.0020339,0,0,0,0
189,0.040402,5.781,0.0018653,0,0,0,0
192,0.041206,5.8588,0.0021347,0,0,0,0
195,0.043363,5.9376,0.002,0,0,0,0
198,0.044672,6.0148,0.0017964,0,0,0,0
201,0.045611,6.0913,0.0022355,0,0,0,0
204,0.046481,6.1701,0.002439,0,0,0,0
207,0.048436,6.2469,0.0021048,0,0,0,0
210,0.049916,6.3231,0.0024071,0,0,0,0
213,0.050316,6.4021,0.0026754,0,0,0,0
216,0.050988,6.4751,0.0025747,0,0,0,0
219,0.053515,6.5493,0.0023722,0,0,0,0
222,0.054894,6.624,0.0025737,0,0,0,0
225,0.055732,6.7005,0.0031141,0,0,0,0
228,0.056907,6.7726,0.002813,0,0,0,0
231,0.059639,6.8489,0.0029147,0,0,0,0
234,0.061394,6.9204,0.0029118,0,0,0,0
237,0.062574,6.9931,0.0037549,0,0,0,0
240,0.06426,7.0657,0.0039223,0,0,0,0
243,0.06581,7.1385,0.0030822,0,0,0,0
246,0.067796,7.2074,0.0034869,0,0,0,0
249,0.069617,7.2816,0.0038924,0,0,0,0
252,0.072652,7.3495,0.0043963,0,0,0,0
255,0.073495,7.4212,0.0038566,0,0,0,0
258,0.075082,7.4912,0.0039233,0,0,0,0
261,0.078255,7.5583,0.004462,0,0,0,0
264,0.080854,7.6247,0.0047666,0,0,0,0
267,0.082842,7.6953,0.0043326,0,0,0,0
270,0.083346,7.761,0.0042609,0,0,0,0
273,0.086519,7.8276,0.0048651,0,0,0,0
276,0.089692,7.8963,0.0057057,0,0,0,0
279,0.091819,7.9579,0.0052024,0,0,0,0
282,0.093877,8.0262,0.004902,0,0,0,0
285,0.097219,8.093,0.0055764,0,0,0,0
288,0.099581,8.1611,0.006315,0,0,0,0
291,0.10299,8.2248,0.0064144,0,0,0,0
294,0.10613,8.2912,0.0059433,0,0,0,0
297,0.109,8.3504,0.006311,0,0,0,0
300,0.11126,8.4202,0.0069826,0,0,0,0
303,0.11451,8.4828,0.0073201,0,0,0,0
306,0.119,8.5442,0.0068515,0,0,0,0
309,0.12254,8.6076,0.0071534,0,0,0,0
312,0.12565,8.6717,0.0080922,0,0,0,0
315,0.12973,8.733,0.0081239,0,0,0,0
318,0.13352,8.7947,0.0077221,0,0,0,0
321,0.13703,8.8568,0.0080575,0,0,0,0
324,0.1421,8.9178,0.0090271,0,0,0,0
327,0.14683,8.9776,0.0095661,0,0,0,0
330,0.14956,9.0366,0.008931,0,0,0,0
333,0.15432,9.0977,0.0093006,0,0,0,0
336,0.15932,9.1564,0.010339,0,0,0,0
339,0.16375,9.2166,0.010642,0,0,0,0
342,0.16892,9.2747,0.010073,0,0,0,0
345,0.17371,9.3331,0.010572,0,0,0,0
348,0.1779,9.3916,0.011909,0,0,0,0
351,0.18341,9.4507,0.011909,0,0,0,0
354,0.18939,9.504,0.011473,0,0,0,0
357,0.1949,9.5645,0.012274,0,0,0,0
360,0.20057,9.6199,0.013442,0,0,0,0
363,0.20591,9.6778,0.013443,0,0,0,0
366,0.21118,9.7346,0.013244,0,0,0,0
369,0.21838,9.7892,0.014212,0,0,0,0
372,0.22487,9.8472,0.015078,0,0,0,0
375,0.23038,9.9021,0.015246,0,0,0,0
378,0.2375,9.9567,0.015414,0,0,0,0
381,0.24365,10.01,0.016377,0,0,0,0
384,0.24994,10.064,0.017242,0,0,0,0
387,0.25802,10.118,0.017009,0,0,0,0
390,0.26454,10.171,0.017673,0,0,0,0
393,0.2716,10.224,0.018933,0,0,0,0
396,0.27876,10.272,0.019199,0,0,0,0
399,0.28485,10.327,0.01913,0,0,0,0
402,0.29357,10.378,0.020157,0,0,0,0
405,0.30151,10.428,0.021116,0,0,0,0
408,0.30904,10.479,0.02125,0,0,0,0
411,0.3177,10.526,0.02191,0,0,0,0
414,0.32456,10.576,0.023,0,0,0,0
417,0.33328,10.626,0.023727,0,0,0,0
420,0.34125,10.675,0.023959,0,0,0,0
423,0.34957,10.719,0.024817,0,0,0,0
426,0.35927,10.766,0.025708,0,0,0,0
429,0.36745,10.813,0.026301,0,0,0,0
432,0.37715,10.861,0.027059,0,0,0,0
435,0.38519,10.907,0.028178,0,0,0,0
438,0.39408,10.953,0.028637,0,0,0,0
441,0.40439,10.996,0.029359,0,0,0,0
444,0.41378,11.041,0.030376,0,0,0,0
447,0.42416,11.086,0.031063,0,0,0,0
450,0.43393,11.129,0.031555,0,0,0,0
453,0.44376,11.172,0.032601,0,0,0,0
456,0.45343,11.214,0.033484,0,0,0,0
459,0.46424,11.258,0.034202,0,0,0,0
462,0.47435,11.297,0.035116,0,0,0,0
465,0.48442,11.336,0.036354,0,0,0,0
468,0.49561,11.377,0.037234,0,0,0,0
471,0.50585,11.417,0.037981,0,0,0,0
474,0.51744,11.456,0.038989,0,0,0,0
477,0.52768,11.493,0.040192,0,0,0,0
480,0.53918,11.53,0.04136,0,0,0,0
483,0.55009,11.567,0.042138,0,0,0,0
486,0.56193,11.604,0.043107,0,0,0,0
489,0.57362,11.64,0.044047,0,0,0,0
492,0.58582,11.678,0.045242,0,0,0,0
495,0.59786,11.71,0.046468,0,0,0,0
498,0.60996,11.744,0.047565,0,0,0,0
501,0.62206,11.775,0.04821,0,0,0,0
504,0.63358,11.811,0.049916,0,0,0,0
507,0.64636,11.842,0.050912,0,0,0,0
510,0.65799,11.875,0.052002,0,0,0,0
513,0.67165,11.905,0.053542,0,0,0,0
516,0.68381,11.934,0.05463,0,0,0,0
519,0.69794,11.964,0.055685,0,0,0,0
522,0.71031,11.997,0.057059,0,0,0,0
525,0.72444,12.024,0.058304,0,0,0,0
528,0.73688,12.056,0.059706,0,0,0,0
531,0.75094,12.081,0.061105,0,0,0,0
534,0.76342,12.11,0.062218,0,0,0,0
537,0.77765,12.135,0.063612,0,0,0,0
540,0.79059,12.166,0.065167,0,0,0,0
543,0.80516,12.187,0.066243,0,0,0,0
546,0.81888,12.209,0.067506,0,0,0,0
549,0.83322,12.234,0.069307,0,0,0,0
552,0.84768,12.26,0.070787,0,0,0,0
555,0.86327,12.285,0.072109,0,0,0,0
558,0.87672,12.308,0.074182,0,0,0,0
561,0.89237,12.327,0.076064,0,0,0,0
564,0.90626,12.348,0.077535,0,0,0,0
567,0.92205,12.37,0.079284,0,0,0,0
570,0.93638,12.389,0.081156,0,0,0,0
573,0.95213,12.407,0.08318,0,0,0,0
576,0.9667,12.428,0.085074,0,0,0,0
579,0.98276,12.444,0.087152,0,0,0,0
582,0.99753,12.46,0.089256,0,0,0,0
585,1.0143,12.477,0.091448,0,0,0,0
588,1.0299,12.494,0.093974,0,0,0,0
591,1.0459,12.51,0.096064,0,0,0,0
594,1.0626,12.53,0.09818,0,0,0,0
597,1.0782,12.542,0.10066,0,0,0,0
600,1.0956,12.553,0.10328,0,0,0,0
603,1.1116,12.566,0.10526,0,0,0,0
606,1.1286,12.577,0.10794,0,0,0,0
609,1.145,12.59,0.11033,0,0,0,0
612,1.1621,12.6,0.11305,0,0,0,0
615,1.1781,12.61,0.1154,0,0,0,0
618,1.1957,12.622,0.1179,0,0,0,0
621,1.2125,12.629,0.12093,0,0,0,0
624,1.2301,12.638,0.12371,0,0,0,0
627,1.2479,12.646,0.1269,0,0,0,0
630,1.2651,12.652,0.12973,0,0,0,0
633,1.2829,12.659,0.13269,0,0,0,0
636,1.3003,12.663,0.13606,0,0,0,0
639,1.3192,12.669,0.1393,0,0,0,0
642,1.3367,12.672,0.143,0,0,0,0
645,1.3557,12.674,0.14645,0,0,0,0
648,1.3735,12.679,0.14977,0,0,0,0
651,1.3921,12.679,0.15361,0,0,0,0
654,1.4108,12.679,0.15737,0,0,0,0
657,1.4293,12.677,0.16178,0,0,0,0
660,1.4487,12.677,0.16597,0,0,0,0
663,1.4669,12.674,0.17011,0,0,0,0
666,1.4869,12.672,0.17463,0,0,0,0
669,1.5059,12.667,0.17902,0,0,0,0
672,1.5257,12.659,0.1841,0,0,0,0
675,1.5452,12.653,0.18887,0,0,0,0
678,1.5643,12.648,0.19392,0,0,0,0
681,1.5848,12.641,0.19864,0,0,0,0
684,1.6045,12.631,0.20428,0,0,0,0
687,1.6248,12.618,0.21027,0,0,0,0
690,1.6452,12.604,0.21652,0,0,0,0
693,1.6651,12.588,0.22287,0,0,0,0
696,1.6863,12.571,0.22953,0,0,0,0
699,1.7068,12.557,0.23599,0,0,0,0
702,1.7275,12.538,0.24293,0,0,0,0
705,1.749,12.516,0.24965,0,0,0,0
708,1.7696,12.49,0.25724,0,0,0,0
711,1.7914,12.466,0.26508,0,0,0,0
714,1.8121,12.439,0.27278,0,0,0,0
717,1.8339,12.412,0.28112,0,0,0,0
720,1.856,12.382,0.28929,0,0,0,0
723,1.8776,12.345,0.29779,0,0,0,0
726,1.8994,12.307,0.30717,0,0,0,0
729,1.9217,12.268,0.31637,0,0,0,0
732,1.9441,12.224,0.32551,0,0,0,0
735,1.9675,12.176,0.3365,0,0,0,0
738,1.9909,12.122,0.34644,0,0,0,0
741,2.0136,12.062,0.35726,0,0,0,0
744,2.0382,11.994,0.36908,0,0,0,0
747,2.0626,11.917,0.38098,0,0,0,0
748.5,2.0758,11.868,0.38826,0,0,0,0

File: NT20_90_2.csv
Time[s],Displacement[mm],Force[kN],AxStrain_1,AxStrain_2,Thickness[mm],OuterWidth[mm],InnerWidth[mm]
0,0,-0.031457,0,0,1.4938,19.97,10.044
3,0.000728,0.15442,-5.7002e-05,0,0,0,0
6,0.001337,0.2875,-4.5001e-05,0,0,0,0
9,0.001946,0.41487,-5.7002e-05,0,0,0,0
12,0.002552,0.53802,-3e-05,0,0,0,0
15,0.002089,0.6575,6.7998e-05,0,0,0,0
18,0.00262,0.77143,-9.1004e-05,0,0,0,0
21,0.003553,0.88583,-0.00015201,0,0,0,0
24,0.004208,0.99852,-0.00012501,0,0,0,0
27,0.004293,1.1034,-0.00014501,0,0,0,0
30,0.004702,1.2108,-0.00027004,0,0,0,0
33,0.005808,1.3113,-0.00019602,0,0,0,0
36,0.006639,1.4118,-0.00036507,0,0,0,0
39,0.00617,1.5093,-0.00035506,0,0,0,0
42,0.007127,1.6102,-0.00016201,0,0,0,0
45,0.00855,1.703,0.00018298,0,0,0,0
48,0.008036,1.7972,0.00013499,0,0,0,0
51,0.008584,1.8905,-0.00017201,0,0,0,0
54,0.010021,1.983,-6.1002e-05,0,0,0,0
57,0.010654,2.0738,9.7995e-05,0,0,0,0
60,0.009894,2.1625,0.00010499,0,0,0,0
63,0.01051,2.2521,8.4996e-05,0,0,0,0
66,0.012305,2.3428,4.3999e-05,0,0,0,0
69,0.012174,2.4292,0.00037193,0,0,0,0
72,0.012023,2.519,0.00030395,0,0,0,0
75,0.013197,2.6054,0.00049088,0,0,0,0
78,0.014692,2.6881,0.00023997,0,0,0,0
81,0.014332,2.7742,0.00052386,0,0,0,0
84,0.014059,2.8584,0.00035894,0,0,0,0
87,0.015561,2.9415,0.00046989,0,0,0,0
90,0.016827,3.0234,0.00056484,0,0,0,0
93,0.01669,3.1078,0.00040592,0,0,0,0
96,0.016368,3.1906,0.00051387,0,0,0,0
99,0.01717,3.272,0.00035194,0,0,0,0
102,0.019308,3.3564,0.00058483,0,0,0,0
105,0.01842,3.4389,0.00051787,0,0,0,0
108,0.01922,3.5211,0.00024397,0,0,0,0
111,0.020478,3.5988,0.00057483,0,0,0,0
114,0.021843,3.6803,0.00047389,0,0,0,0
117,0.022365,3.7578,0.00047389,0,0,0,0
120,0.021731,3.8419,0.00047389,0,0,0,0
123,0.022747,3.9187,0.00037293,0,0,0,0
126,0.024237,3.9994,0.00091258,0,0,0,0
129,0.024273,4.0754,0.00060881,0,0,0,0
132,0.024378,4.1546,0.00081167,0,0,0,0
135,0.025462,4.2286,0.00074572,0,0,0,0
138,0.026478,4.3072,0.00098152,0,0,0,0
141,0.026717,4.3854,0.0010834,0,0,0,0
144,0.027025,4.4608,0.00091458,0,0,0,0
147,0.027703,4.5388,0.00091358,0,0,0,0
150,0.029193,4.6131,0.00091458,0,0,0,0
153,0.029634,4.6882,0.0010155,0,0,0,0
156,0.030143,4.7656,0.00098052,0,0,0,0
159,0.030923,4.8382,0.00091358,0,0,0,0
162,0.031634,4.9155,0.0011833,0,0,0,0
165,0.03265,4.991,0.0011503,0,0,0,0
168,0.033734,5.0617,0.0013191,0,0,0,0
171,0.034446,5.1355,0.0011503,0,0,0,0
174,0.035429,5.2093,0.0011513,0,0,0,0
177,0.035938,5.2842,0.0012862,0,0,0,0
180,0.037259,5.3571,0.001387,0,0,0,0
183,0.03841,5.4297,0.0011174,0,0,0,0
186,0.039528,5.5031,0.0012522,0,0,0,0
189,0.039462,5.5725,0.0012183,0,0,0,0
192,0.04014,5.6413,0.0012512,0,0,0,0
195,0.041494,5.7078,0.0011164,0,0,0,0
198,0.043186,5.7771,0.0012522,0,0,0,0
201,0.044271,5.8427,0.0012862,0,0,0,0
204,0.044138,5.9111,0.0016576,0,0,0,0
207,0.044985,5.9775,0.0019281,0,0,0,0
210,0.047115,6.0427,0.0017934,0,0,0,0
213,0.048975,6.1079,0.0017924,0,0,0,0
216,0.049414,6.1721,0.0017924,0,0,0,0
219,0.049584,6.2338,0.002467,0,0,0,0
222,0.050769,6.2983,0.0023662,0,0,0,0
225,0.052766,6.3607,0.0020968,0,0,0,0
228,0.053986,6.4239,0.0020639,0,0,0,0
231,0.054936,6.4833,0.0021986,0,0,0,0
234,0.05531,6.5455,0.0026026,0,0,0,0
237,0.056899,6.6069,0.0025348,0,0,0,0
240,0.058894,6.6679,0.0026355,0,0,0,0
243,0.060481,6.7342,0.0022984,0,0,0,0
246,0.06136,6.7944,0.002468,0,0,0,0
249,0.062986,6.855,0.0029746,0,0,0,0
252,0.06424,6.9177,0.002839,0,0,0,0
255,0.065867,6.9765,0.0027033,0,0,0,0
258,0.066917,7.0399,0.0026355,0,0,0,0
261,0.068676,7.1007,0.0031421,0,0,0,0
264,0.070738,7.163,0.0036473,0,0,0,0
267,0.072563,7.2292,0.0038157,0,0,0,0
270,0.073645,7.2896,0.0035138,0,0,0,0
273,0.075439,7.3534,0.0035477,0,0,0,0
276,0.077438,7.4156,0.0039522,0,0,0,0
279,0.080179,7.4771,0.0044889,0,0,0,0
282,0.08194,7.5389,0.0041852,0,0,0,0
285,0.082684,7.6041,0.0040518,0,0,0,0
288,0.084916,7.6688,0.0041882,0,0,0,0
291,0.088702,7.7314,0.0047935,0,0,0,0
294,0.090867,7.7968,0.0051288,0,0,0,0
297,0.092864,7.8612,0.0048243,0,0,0,0
300,0.094693,7.9258,0.004691,0,0,0,0
303,0.097772,7.9916,0.0049278,0,0,0,0
306,0.10024,8.0567,0.0057345,0,0,0,0
309,0.10308,8.1169,0.0059691,0,0,0,0
312,0.10589,8.1831,0.005466,0,0,0,0
315,0.10951,8.2489,0.0060029,0,0,0,0
318,0.11161,8.3107,0.0068078,0,0,0,0
321,0.11492,8.3763,0.0070094,0,0,0,0
324,0.11955,8.4402,0.0066747,0,0,0,0
327,0.12327,8.505,0.0068098,0,0,0,0
330,0.12608,8.5669,0.007984,0,0,0,0
333,0.12973,8.6319,0.0084869,0,0,0,0
336,0.13399,8.695,0.0079503,0,0,0,0
339,0.13798,8.7596,0.0079493,0,0,0,0
342,0.14255,8.8165,0.0086535,0,0,0,0
345,0.14732,8.8803,0.0094225,0,0,0,0
348,0.15121,8.9433,0.0091213,0,0,0,0
351,0.1554,9.0053,0.0092243,0,0,0,0
354,0.16104,9.0632,0.010229,0,0,0,0
357,0.16584,9.1292,0.010997,0,0,0,0
360,0.17081,9.1874,0.010563,0,0,0,0
363,0.17626,9.2508,0.010663,0,0,0,0
366,0.18058,9.313,0.012066,0,0,0,0
369,0.18603,9.373,0.012598,0,0,0,0
372,0.19269,9.431,0.012099,0,0,0,0
375,0.19861,9.4934,0.012632,0,0,0,0
378,0.20442,9.5489,0.013866,0,0,0,0
381,0.21108,9.6084,0.014333,0,0,0,0
384,0.21622,9.6672,0.014267,0,0,0,0
387,0.22251,9.7253,0.0149,0,0,0,0
390,0.23025,9.7791,0.016232,0,0,0,0
393,0.23647,9.836,0.016399,0,0,0,0
396,0.24374,9.8918,0.016132,0,0,0,0
399,0.25026,9.9498,0.017129,0,0,0,0
402,0.25628,10.003,0.018391,0,0,0,0
405,0.26422,10.057,0.01829,0,0,0,0
408,0.27128,10.112,0.01819,0,0,0,0
411,0.27909,10.164,0.019715,0,0,0,0
414,0.28748,10.216,0.02061,0,0,0,0
417,0.29458,10.268,0.02061,0,0,0,0
420,0.30201,10.322,0.021173,0,0,0,0
423,0.30965,10.374,0.022595,0,0,0,0
426,0.31844,10.424,0.023124,0,0,0,0
429,0.32737,10.473,0.023487,0,0,0,0
432,0.33531,10.521,0.024511,0,0,0,0
435,0.34437,10.572,0.025697,0,0,0,0
438,0.35255,10.62,0.026093,0,0,0,0
441,0.36111,10.671,0.026882,0,0,0,0
444,0.37064,10.717,0.027706,0,0,0,0
447,0.37966,10.762,0.028625,0,0,0,0
450,0.39004,10.807,0.02915,0,0,0,0
453,0.39923,10.855,0.02997,0,0,0,0
456,0.40887,10.902,0.031118,0,0,0,0
459,0.41833,10.944,0.031773,0,0,0,0
462,0.42701,10.984,0.032656,0,0,0,0
465,0.43814,11.032,0.033571,0,0,0,0
468,0.44729,11.073,0.034812,0,0,0,0
471,0.45852,11.116,0.035203,0,0,0,0
474,0.46896,11.159,0.036117,0,0,0,0
477,0.47964,11.199,0.037159,0,0,0,0
480,0.49025,11.24,0.037973,0,0,0,0
483,0.50056,11.279,0.03898,0,0,0,0
486,0.51185,11.318,0.039891,0,0,0,0
489,0.52216,11.357,0.041189,0,0,0,0
492,0.53426,11.394,0.041837,0,0,0,0
495,0.54497,11.432,0.043004,0,0,0,0
498,0.55741,11.468,0.044234,0,0,0,0
501,0.56826,11.503,0.044589,0,0,0,0
504,0.57962,11.539,0.045333,0,0,0,0
507,0.59148,11.574,0.047139,0,0,0,0
510,0.60301,11.609,0.048589,0,0,0,0
513,0.61531,11.644,0.048976,0,0,0,0
516,0.62714,11.678,0.050488,0,0,0,0
519,0.64009,11.71,0.052157,0,0,0,0
522,0.65239,11.743,0.053023,0,0,0,0
525,0.66591,11.773,0.054112,0,0,0,0
528,0.67788,11.811,0.055712,0,0,0,0
531,0.69156,11.834,0.057149,0,0,0,0
534,0.70339,11.863,0.058266,0,0,0,0
537,0.71654,11.893,0.059509,0,0,0,0
540,0.72884,11.921,0.061418,0,0,0,0
543,0.74267,11.95,0.062688,0,0,0,0
546,0.75548,11.975,0.063672,0,0,0,0
549,0.76951,12.001,0.065036,0,0,0,0
552,0.78276,12.032,0.067029,0,0,0,0
555,0.79753,12.057,0.068418,0,0,0,0
558,0.81128,12.082,0.069838,0,0,0,0
561,0.82622,12.105,0.071507,0,0,0,0
564,0.83964,12.132,0.073173,0,0,0,0
567,0.85488,12.152,0.074586,0,0,0,0
570,0.86874,12.174,0.07631,0,0,0,0
573,0.88324,12.196,0.078125,0,0,0,0
576,0.89716,12.219,0.079936,0,0,0,0
579,0.9122,12.24,0.081308,0,0,0,0
582,0.92677,12.261,0.083394,0,0,0,0
585,0.94215,12.28,0.085289,0,0,0,0
588,0.95661,12.302,0.086902,0,0,0,0
591,0.97246,12.32,0.089131,0,0,0,0
594,0.98733,12.336,0.091108,0,0,0,0
597,1.0039,12.356,0.092957,0,0,0,0
600,1.0186,12.373,0.094896,0,0,0,0
603,1.0358,12.386,0.097168,0,0,0,0
606,1.0507,12.401,0.099374,0,0,0,0
609,1.0675,12.418,0.10142,0,0,0,0
612,1.0829,12.43,0.10395,0,0,0,0
615,1.0995,12.443,0.10669,0,0,0,0
618,1.1155,12.452,0.10882,0,0,0,0
621,1.1321,12.467,0.11154,0,0,0,0
624,1.1485,12.481,0.11408,0,0,0,0
627,1.165,12.491,0.11661,0,0,0,0
630,1.1821,12.503,0.11928,0,0,0,0
633,1.1985,12.514,0.12219,0,0,0,0
636,1.2167,12.522,0.12464,0,0,0,0
639,1.2328,12.53,0.12774,0,0,0,0
642,1.251,12.539,0.13079,0,0,0,0
645,1.2673,12.546,0.13355,0,0,0,0
648,1.286,12.55,0.13653,0,0,0,0
651,1.3031,12.557,0.14021,0,0,0,0
654,1.321,12.561,0.1435,0,0,0,0
657,1.3392,12.564,0.14686,0,0,0,0
660,1.3575,12.57,0.15068,0,0,0,0
663,1.3755,12.573,0.15442,0,0,0,0
666,1.3938,12.572,0.15852,0,0,0,0
669,1.4129,12.572,0.16229,0,0,0,0
672,1.43,12.572,0.16654,0,0,0,0
675,1.45,12.57,0.17048,0,0,0,0
678,1.4687,12.571,0.17466,0,0,0,0
681,1.4875,12.567,0.17857,0,0,0,0
684,1.5067,12.564,0.18303,0,0,0,0
687,1.5255,12.56,0.18772,0,0,0,0
690,1.5461,12.551,0.19253,0,0,0,0
693,1.5654,12.548,0.19768,0,0,0,0
696,1.585,12.541,0.20247,0,0,0,0
699,1.6051,12.529,0.20795,0,0,0,0
702,1.6247,12.518,0.21416,0,0,0,0
705,1.6454,12.505,0.22029,0,0,0,0
708,1.665,12.494,0.22683,0,0,0,0
711,1.6861,12.48,0.23291,0,0,0,0
714,1.707,12.463,0.23934,0,0,0,0
717,1.727,12.445,0.24619,0,0,0,0
720,1.7487,12.424,0.25259,0,0,0,0
723,1.7685,12.405,0.26024,0,0,0,0
726,1.7894,12.385,0.26779,0,0,0,0
729,1.8115,12.359,0.27566,0,0,0,0
732,1.8321,12.331,0.28388,0,0,0,0
735,1.8543,12.305,0.29149,0,0,0,0
738,1.8755,12.274,0.30046,0,0,0,0
741,1.8975,12.24,0.30934,0,0,0,0
744,1.92,12.204,0.31845,0,0,0,0
747,1.9416,12.163,0.32813,0,0,0,0
750,1.9648,12.118,0.33812,0,0,0,0
753,1.9877,12.07,0.34969,0,0,0,0
756,2.0104,12.014,0.36032,0,0,0,0
759,2.0343,11.955,0.37096,0,0,0,0
762,2.0578,11.891,0.38342,0,0,0,0
765,2.0821,11.818,0.39537,0,0,0,0