Folder: ethz/polyN_optimization/DP780_results/DATA (part 2)

File: NT6_00_2.csv
Time[s],Displacement[mm],Force[kN],AxStrain_1,AxStrain_2,Thickness[mm],OuterWidth[mm],InnerWidth[mm]
0,0,-0.029384,0,0,1.4945,19.959,10.065
2.5,0.000148,0.13287,0.00023697,0,0,0,0
5,0.000452,0.25231,0.00014199,0,0,0,0
7.5,0.00081,0.3604,0.00014699,0,0,0,0
10,0.001735,0.46522,0.00016999,0,0,0,0
12.5,0.001531,0.56672,0.00021598,0,0,0,0
15,0.001829,0.66664,0.00010099,0,0,0,0
17.5,0.00215,0.76675,-2.7e-05,0,0,0,0
20,0.002796,0.86383,0.00017898,0,0,0,0
22.5,0.003273,0.95999,8.4996e-05,0,0,0,0
25,0.003577,1.0508,0.00011799,0,0,0,0
27.5,0.003591,1.1475,0.00024297,0,0,0,0
30,0.003913,1.2352,0.00020298,0,0,0,0
32.5,0.005336,1.3224,0.00026996,0,0,0,0
35,0.005584,1.4111,0.00017898,0,0,0,0
37.5,0.005504,1.4917,0.00016199,0,0,0,0
40,0.005826,1.5748,0.00020998,0,0,0,0
42.5,0.006922,1.6561,0.00029396,0,0,0,0
45,0.006936,1.7389,0.00034794,0,0,0,0
47.5,0.006911,1.8142,0.00037493,0,0,0,0
50,0.007243,1.8934,0.00032795,0,0,0,0
52.5,0.00812,1.9743,0.00019598,0,0,0,0
55,0.009099,2.0506,0.0004559,0,0,0,0
57.5,0.008557,2.1276,0.00041291,0,0,0,0
60,0.008785,2.2065,0.00058183,0,0,0,0
62.5,0.009822,2.2813,0.00061881,0,0,0,0
65,0.010714,2.3562,0.00047988,0,0,0,0
67.5,0.010092,2.4308,0.00058183,0,0,0,0
70,0.010419,2.5025,0.00048688,0,0,0,0
72.5,0.011206,2.5713,0.00053086,0,0,0,0
75,0.012578,2.646,0.0006258,0,0,0,0
77.5,0.012304,2.7191,0.00057883,0,0,0,0
80,0.012118,2.785,0.0006328,0,0,0,0
82.5,0.013136,2.8586,0.00066578,0,0,0,0
85,0.014316,2.9278,0.00070375,0,0,0,0
87.5,0.014648,2.9952,0.0006398,0,0,0,0
90,0.014236,3.0659,0.00070075,0,0,0,0
92.5,0.014682,3.1312,0.00047089,0,0,0,0
95,0.015927,3.1987,0.00048088,0,0,0,0
97.5,0.016702,3.2661,0.00070675,0,0,0,0
100,0.016507,3.336,0.00074172,0,0,0,0
102.5,0.016404,3.4031,0.00066778,0,0,0,0
105,0.01724,3.4695,0.00055585,0,0,0,0
107.5,0.018438,3.5356,0.00095454,0,0,0,0
110,0.018684,3.6015,0.0007797,0,0,0,0
112.5,0.018487,3.6688,0.0007797,0,0,0,0
115,0.018661,3.7348,0.0007797,0,0,0,0
117.5,0.019951,3.798,0.00098152,0,0,0,0
120,0.020668,3.8639,0.0011843,0,0,0,0
122.5,0.020504,3.931,0.00074572,0,0,0,0
125,0.020308,3.9905,0.00081267,0,0,0,0
127.5,0.021295,4.0582,0.00084664,0,0,0,0
130,0.02245,4.1218,0.00084764,0,0,0,0
132.5,0.02283,4.1874,0.0010834,0,0,0,0
135,0.022363,4.2495,0.00084764,0,0,0,0
137.5,0.022911,4.314,0.0011174,0,0,0,0
140,0.024035,4.3773,0.00067877,0,0,0,0
142.5,0.024649,4.4389,0.0010165,0,0,0,0
145,0.024589,4.504,0.0011513,0,0,0,0
147.5,0.024665,4.5678,0.00094955,0,0,0,0
150,0.02589,4.6292,0.00094955,0,0,0,0
152.5,0.026912,4.69,0.00084864,0,0,0,0
155,0.027258,4.7562,0.0010185,0,0,0,0
157.5,0.027167,4.8162,0.0012213,0,0,0,0
160,0.027852,4.881,0.00078269,0,0,0,0
162.5,0.02884,4.9428,0.0010524,0,0,0,0
165,0.029426,5.0048,0.0012562,0,0,0,0
167.5,0.029773,5.0662,0.00098651,0,0,0,0
170,0.030188,5.1338,0.0012243,0,0,0,0
172.5,0.03138,5.19,0.0011234,0,0,0,0
175,0.031896,5.2542,0.0015628,0,0,0,0
177.5,0.032819,5.3233,0.0012252,0,0,0,0
180,0.033504,5.3858,0.00099051,0,0,0,0
182.5,0.033953,5.4499,0.0011923,0,0,0,0
185,0.034537,5.5131,0.0015628,0,0,0,0
187.5,0.035391,5.5758,0.0012922,0,0,0,0
190,0.036381,5.6386,0.0012922,0,0,0,0
192.5,0.037271,5.7022,0.001393,0,0,0,0
195,0.037653,5.7667,0.0013261,0,0,0,0
197.5,0.038173,5.8286,0.0016636,0,0,0,0
200,0.039468,5.8911,0.0015618,0,0,0,0
202.5,0.040797,5.9525,0.0015957,0,0,0,0
205,0.041046,6.0176,0.0019671,0,0,0,0
207.5,0.041867,6.0807,0.0018323,0,0,0,0
210,0.042554,6.1422,0.002003,0,0,0,0
212.5,0.044153,6.2092,0.0019711,0,0,0,0
215,0.044636,6.2726,0.0018363,0,0,0,0
217.5,0.045424,6.339,0.0021756,0,0,0,0
220,0.046313,6.3989,0.0022445,0,0,0,0
222.5,0.04852,6.4666,0.0019731,0,0,0,0
225,0.049613,6.5296,0.0022405,0,0,0,0
227.5,0.050166,6.5952,0.0022066,0,0,0,0
230,0.050515,6.6554,0.0026774,0,0,0,0
232.5,0.052454,6.7226,0.0026116,0,0,0,0
235,0.05412,6.7866,0.0024769,0,0,0,0
237.5,0.055073,6.8512,0.0027472,0,0,0,0
240,0.055523,6.9152,0.0030862,0,0,0,0
242.5,0.057254,6.9801,0.00282,0,0,0,0
245,0.059393,7.0436,0.0027861,0,0,0,0
247.5,0.060686,7.1077,0.0030194,0,0,0,0
250,0.061476,7.1754,0.0033215,0,0,0,0
252.5,0.062807,7.2378,0.0036583,0,0,0,0
255,0.064849,7.3031,0.0033544,0,0,0,0
257.5,0.066144,7.3665,0.0033554,0,0,0,0
260,0.06791,7.4327,0.0041643,0,0,0,0
262.5,0.069443,7.4967,0.0043057,0,0,0,0
265,0.070835,7.5591,0.004237,0,0,0,0
267.5,0.072701,7.6279,0.0040339,0,0,0,0
270,0.074739,7.6911,0.0044342,0,0,0,0
272.5,0.077216,7.754,0.0052751,0,0,0,0
275,0.078545,7.817,0.0050055,0,0,0,0
277.5,0.080007,7.8773,0.0048044,0,0,0,0
280,0.082042,7.9413,0.0050074,0,0,0,0
282.5,0.084888,8.0029,0.0057166,0,0,0,0
285,0.087297,8.0686,0.0057196,0,0,0,0
287.5,0.088723,8.1312,0.0054819,0,0,0,0
290,0.090422,8.1947,0.0057146,0,0,0,0
292.5,0.093711,8.2571,0.006318,0,0,0,0
295,0.096291,8.3216,0.0066528,0,0,0,0
297.5,0.098433,8.3853,0.0065863,0,0,0,0
300,0.10132,8.4458,0.0064531,0,0,0,0
302.5,0.10379,8.5084,0.0070928,0,0,0,0
305,0.1065,8.5686,0.0079682,0,0,0,0
307.5,0.10995,8.6293,0.0078025,0,0,0,0
310,0.11357,8.6878,0.0076685,0,0,0,0
312.5,0.11628,8.7488,0.0083699,0,0,0,0
315,0.11879,8.8096,0.0094056,0,0,0,0
317.5,0.12201,8.869,0.0094383,0,0,0,0
320,0.12593,8.9274,0.0088021,0,0,0,0
322.5,0.12953,8.9848,0.009572,0,0,0,0
325,0.13285,9.0435,0.010709,0,0,0,0
327.5,0.13681,9.1041,0.010709,0,0,0,0
330,0.14017,9.1623,0.010513,0,0,0,0
332.5,0.14433,9.22,0.010715,0,0,0,0
335,0.14877,9.2763,0.011885,0,0,0,0
337.5,0.15313,9.3306,0.012218,0,0,0,0
340,0.15638,9.3887,0.01182,0,0,0,0
342.5,0.16024,9.4452,0.011921,0,0,0,0
345,0.16505,9.4992,0.013352,0,0,0,0
347.5,0.16944,9.5536,0.014117,0,0,0,0
350,0.17388,9.6074,0.013918,0,0,0,0
352.5,0.17915,9.6632,0.014016,0,0,0,0
355,0.18345,9.7171,0.014914,0,0,0,0
357.5,0.18745,9.7705,0.015779,0,0,0,0
360,0.19289,9.8234,0.015713,0,0,0,0
362.5,0.19851,9.8776,0.015714,0,0,0,0
365,0.20328,9.9272,0.016311,0,0,0,0
367.5,0.2091,9.9805,0.017541,0,0,0,0
370,0.21475,10.031,0.017511,0,0,0,0
372.5,0.21918,10.082,0.01748,0,0,0,0
375,0.22456,10.135,0.018142,0,0,0,0
377.5,0.23115,10.186,0.019104,0,0,0,0
380,0.23643,10.233,0.019636,0,0,0,0
382.5,0.24262,10.283,0.019605,0,0,0,0
385,0.24911,10.332,0.020103,0,0,0,0
387.5,0.25456,10.38,0.021294,0,0,0,0
390,0.25977,10.425,0.021622,0,0,0,0
392.5,0.26605,10.476,0.021752,0,0,0,0
395,0.27261,10.52,0.022248,0,0,0,0
397.5,0.27897,10.567,0.023403,0,0,0,0
400,0.28644,10.615,0.023931,0,0,0,0
402.5,0.29276,10.66,0.024327,0,0,0,0
405,0.29899,10.704,0.02482,0,0,0,0
407.5,0.30602,10.747,0.025644,0,0,0,0
410,0.31227,10.793,0.026237,0,0,0,0
412.5,0.31914,10.838,0.026829,0,0,0,0
415,0.32745,10.877,0.02742,0,0,0,0
417.5,0.33418,10.925,0.028112,0,0,0,0
420,0.34125,10.965,0.0288,0,0,0,0
422.5,0.34926,11.008,0.029261,0,0,0,0
425,0.35595,11.046,0.030147,0,0,0,0
427.5,0.36312,11.091,0.030966,0,0,0,0
430,0.37147,11.132,0.031589,0,0,0,0
432.5,0.37871,11.173,0.032309,0,0,0,0
435,0.38669,11.211,0.03316,0,0,0,0
437.5,0.39619,11.252,0.033749,0,0,0,0
440,0.40338,11.29,0.034631,0,0,0,0
442.5,0.41214,11.33,0.035384,0,0,0,0
445,0.42036,11.368,0.03633,0,0,0,0
447.5,0.42773,11.409,0.037144,0,0,0,0
450,0.43709,11.443,0.037827,0,0,0,0
452.5,0.44558,11.478,0.038738,0,0,0,0
455,0.45409,11.515,0.039844,0,0,0,0
457.5,0.46376,11.55,0.040461,0,0,0,0
460,0.47225,11.582,0.041499,0,0,0,0
462.5,0.48144,11.619,0.042535,0,0,0,0
465,0.49074,11.653,0.043668,0,0,0,0
467.5,0.49899,11.687,0.044349,0,0,0,0
470,0.50825,11.722,0.045608,0,0,0,0
472.5,0.51734,11.753,0.046705,0,0,0,0
475,0.52704,11.784,0.047671,0,0,0,0
477.5,0.53725,11.816,0.04851,0,0,0,0
480,0.54648,11.845,0.049859,0,0,0,0
482.5,0.55709,11.878,0.051241,0,0,0,0
485,0.56719,11.907,0.052396,0,0,0,0
487.5,0.5771,11.937,0.053486,0,0,0,0
490,0.58781,11.965,0.054831,0,0,0,0
492.5,0.59748,11.993,0.056397,0,0,0,0
495,0.60762,12.022,0.057513,0,0,0,0
497.5,0.6186,12.053,0.058564,0,0,0,0
500,0.6285,12.074,0.060413,0,0,0,0
502.5,0.63976,12.102,0.061811,0,0,0,0
505,0.6502,12.129,0.062985,0,0,0,0
507.5,0.66155,12.154,0.064729,0,0,0,0
510,0.67281,12.178,0.066121,0,0,0,0
512.5,0.68339,12.203,0.067575,0,0,0,0
515,0.69539,12.226,0.068964,0,0,0,0
517.5,0.70627,12.248,0.070729,0,0,0,0
520,0.71827,12.271,0.072113,0,0,0,0
522.5,0.72965,12.296,0.073715,0,0,0,0
525,0.74108,12.313,0.075691,0,0,0,0
527.5,0.75314,12.332,0.077257,0,0,0,0
530,0.76433,12.352,0.078631,0,0,0,0
532.5,0.7768,12.374,0.080566,0,0,0,0
535,0.78849,12.391,0.082777,0,0,0,0
537.5,0.80099,12.408,0.084612,0,0,0,0
540,0.81336,12.428,0.086628,0,0,0,0
542.5,0.82539,12.441,0.088393,0,0,0,0
545,0.83898,12.455,0.090618,0,0,0,0
547.5,0.85121,12.475,0.092499,0,0,0,0
550,0.86469,12.486,0.094314,0,0,0,0
552.5,0.8773,12.503,0.096926,0,0,0,0
555,0.89116,12.515,0.099163,0,0,0,0
557.5,0.9044,12.528,0.10179,0,0,0,0
560,0.91734,12.54,0.10417,0,0,0,0
562.5,0.93181,12.549,0.10685,0,0,0,0
565,0.94472,12.558,0.10958,0,0,0,0
567.5,0.95915,12.567,0.11239,0,0,0,0
570,0.9729,12.574,0.11592,0,0,0,0
572.5,0.9874,12.58,0.11904,0,0,0,0
575,1.0013,12.589,0.12231,0,0,0,0
577.5,1.0162,12.593,0.12532,0,0,0,0
580,1.0302,12.596,0.12857,0,0,0,0
582.5,1.0445,12.601,0.13222,0,0,0,0
585,1.0595,12.605,0.13582,0,0,0,0
587.5,1.0741,12.6,0.13971,0,0,0,0
590,1.0898,12.599,0.14364,0,0,0,0
592.5,1.1046,12.598,0.1477,0,0,0,0
595,1.121,12.597,0.15181,0,0,0,0
597.5,1.1361,12.592,0.15627,0,0,0,0
600,1.1528,12.584,0.16097,0,0,0,0
602.5,1.1681,12.578,0.16574,0,0,0,0
605,1.1849,12.566,0.17045,0,0,0,0
607.5,1.2009,12.56,0.17585,0,0,0,0
610,1.2183,12.546,0.18156,0,0,0,0
612.5,1.2341,12.527,0.18766,0,0,0,0
615,1.2518,12.514,0.19311,0,0,0,0
617.5,1.2684,12.496,0.19942,0,0,0,0
620,1.2866,12.472,0.20629,0,0,0,0
622.5,1.3035,12.447,0.21325,0,0,0,0
625,1.3221,12.422,0.22063,0,0,0,0
627.5,1.3396,12.392,0.22798,0,0,0,0
630,1.3583,12.365,0.23472,0,0,0,0
632.5,1.3767,12.328,0.24257,0,0,0,0
635,1.3959,12.291,0.24995,0,0,0,0
637.5,1.4144,12.247,0.2585,0,0,0,0
640,1.4343,12.203,0.2669,0,0,0,0
642.5,1.4533,12.15,0.27572,0,0,0,0
645,1.4727,12.098,0.28462,0,0,0,0
647.5,1.493,12.036,0.29375,0,0,0,0
650,1.5136,11.972,0.30354,0,0,0,0
652.5,1.5346,11.891,0.31349,0,0,0,0
653,1.5398,11.872,0.31576,0,0,0,0

File: NT6_00_3.csv
Time[s],Displacement[mm],Force[kN],AxStrain_1,AxStrain_2,Thickness[mm],OuterWidth[mm],InnerWidth[mm]
0,0,-0.035047,0,0,1.4952,19.967,10.083
2.5,0.000551,0.12379,-8.4004e-05,0,0,0,0
5,0.001009,0.24352,-3.6001e-05,0,0,0,0
7.5,0.001264,0.34948,-1e-06,0,0,0,0
10,0.001429,0.45938,0.00027196,0,0,0,0
12.5,0.002187,0.56306,0.00018298,0,0,0,0
15,0.002204,0.66436,0.00012799,0,0,0,0
17.5,0.002444,0.76349,0.00013199,0,0,0,0
20,0.002776,0.86623,-0.00022002,0,0,0,0
22.5,0.003678,0.96181,3.3999e-05,0,0,0,0
25,0.003638,1.0521,0.00028696,0,0,0,0
27.5,0.004304,1.1474,-1.3e-05,0,0,0,0
30,0.004531,1.237,2.4e-05,0,0,0,0
32.5,0.004785,1.3203,0.00021998,0,0,0,0
35,0.006067,1.4078,0.00017898,0,0,0,0
37.5,0.005595,1.4925,0.00027396,0,0,0,0
40,0.005511,1.5729,0.00012499,0,0,0,0
42.5,0.006364,1.6538,0.00037893,0,0,0,0
45,0.007274,1.7384,0.00032795,0,0,0,0
47.5,0.007053,1.8158,0.00040592,0,0,0,0
50,0.00722,1.8931,0.00023697,0,0,0,0
52.5,0.007941,1.9694,0.00034494,0,0,0,0
55,0.009069,2.0477,0.0004369,0,0,0,0
57.5,0.009044,2.1235,0.00061581,0,0,0,0
60,0.008512,2.1996,0.00024797,0,0,0,0
62.5,0.009285,2.2789,0.00017698,0,0,0,0
65,0.010663,2.3508,0.00065578,0,0,0,0
67.5,0.010669,2.4264,0.00037593,0,0,0,0
70,0.010155,2.4978,0.00017998,0,0,0,0
72.5,0.010987,2.5728,8.5996e-05,0,0,0,0
75,0.012105,2.647,0.00065678,0,0,0,0
77.5,0.012548,2.7191,0.00060582,0,0,0,0
80,0.011858,2.7884,0.00031595,0,0,0,0
82.5,0.012413,2.861,0.00028496,0,0,0,0
85,0.013813,2.9336,0.00034294,0,0,0,0
87.5,0.014401,3.0004,0.00054285,0,0,0,0
90,0.014215,3.0721,0.0004409,0,0,0,0
92.5,0.014141,3.144,0.00018798,0,0,0,0
95,0.015241,3.2109,0.00049588,0,0,0,0
97.5,0.016696,3.2802,0.00086063,0,0,0,0
100,0.016364,3.3493,0.00068077,0,0,0,0
102.5,0.016345,3.4192,0.00060382,0,0,0,0
105,0.017076,3.4865,0.00067477,0,0,0,0
107.5,0.01842,3.5584,0.00080368,0,0,0,0
110,0.018586,3.6246,0.00088161,0,0,0,0
112.5,0.018044,3.6948,0.00047589,0,0,0,0
115,0.018793,3.7629,0.00091558,0,0,0,0
117.5,0.020218,3.832,0.0007807,0,0,0,0
120,0.020798,3.8988,0.00061181,0,0,0,0
122.5,0.0205,3.9627,0.00061181,0,0,0,0
125,0.02054,4.0309,0.00054485,0,0,0,0
127.5,0.021864,4.0979,0.00068077,0,0,0,0
130,0.022581,4.1624,0.00074872,0,0,0,0
132.5,0.022622,4.2286,0.00064679,0,0,0,0
135,0.022494,4.2962,0.00054585,0,0,0,0
137.5,0.023346,4.3619,0.00064679,0,0,0,0
140,0.024772,4.4301,0.00095155,0,0,0,0
142.5,0.024949,4.4953,0.0010864,0,0,0,0
145,0.024551,4.5622,0.00095255,0,0,0,0
147.5,0.025135,4.6259,0.0012902,0,0,0,0
150,0.026663,4.6913,0.0013241,0,0,0,0
152.5,0.027179,4.7561,0.001426,0,0,0,0
155,0.026881,4.8222,0.0012912,0,0,0,0
157.5,0.027161,4.8884,0.0010884,0,0,0,0
160,0.028216,4.9516,0.0012252,0,0,0,0
162.5,0.029305,5.0165,0.0015967,0,0,0,0
165,0.02938,5.0826,0.0014959,0,0,0,0
167.5,0.029998,5.149,0.0013271,0,0,0,0
170,0.030649,5.2135,0.0013611,0,0,0,0
172.5,0.031432,5.2773,0.0017664,0,0,0,0
175,0.032185,5.3465,0.0017664,0,0,0,0
177.5,0.032834,5.4084,0.0016656,0,0,0,0
180,0.033789,5.478,0.0014629,0,0,0,0
182.5,0.034271,5.5427,0.0017654,0,0,0,0
185,0.034989,5.6093,0.0018333,0,0,0,0
187.5,0.035607,5.6702,0.0018333,0,0,0,0
190,0.03663,5.7399,0.0015628,0,0,0,0
192.5,0.03735,5.8053,0.0017664,0,0,0,0
195,0.0379,5.873,0.0018673,0,0,0,0
197.5,0.03835,5.9345,0.0022046,0,0,0,0
200,0.039477,6.0014,0.0019681,0,0,0,0
202.5,0.040635,6.0698,0.0019691,0,0,0,0
205,0.041456,6.1332,0.002002,0,0,0,0
207.5,0.041803,6.1996,0.0025089,0,0,0,0
210,0.042961,6.2649,0.0023742,0,0,0,0
212.5,0.044728,6.3319,0.0019371,0,0,0,0
215,0.04541,6.3966,0.0023433,0,0,0,0
217.5,0.045858,6.4643,0.0025458,0,0,0,0
220,0.047152,6.5292,0.0026824,0,0,0,0
222.5,0.048679,6.5948,0.002446,0,0,0,0
225,0.050108,6.663,0.0022764,0,0,0,0
227.5,0.050084,6.7265,0.0027821,0,0,0,0
230,0.050906,6.7949,0.003151,0,0,0,0
232.5,0.053214,6.8564,0.0027472,0,0,0,0
235,0.055183,6.9229,0.0027472,0,0,0,0
237.5,0.056237,6.9865,0.003153,0,0,0,0
240,0.056415,7.0533,0.0034889,0,0,0,0
242.5,0.058045,7.1192,0.0035577,0,0,0,0
245,0.059945,7.1848,0.003155,0,0,0,0
247.5,0.061575,7.2531,0.0034959,0,0,0,0
250,0.062497,7.3173,0.0036952,0,0,0,0
252.5,0.064162,7.3864,0.0040986,0,0,0,0
255,0.066001,7.4525,0.0036583,0,0,0,0
257.5,0.0675,7.5161,0.0035228,0,0,0,0
260,0.068929,7.583,0.004231,0,0,0,0
262.5,0.071168,7.6491,0.0048701,0,0,0,0
265,0.072935,7.7133,0.0045676,0,0,0,0
267.5,0.07436,7.78,0.0045009,0,0,0,0
270,0.076599,7.844,0.0045715,0,0,0,0
272.5,0.07951,7.909,0.005481,0,0,0,0
275,0.081745,7.9728,0.0053467,0,0,0,0
277.5,0.083036,8.0371,0.0052114,0,0,0,0
280,0.085342,8.1009,0.0052761,0,0,0,0
282.5,0.08822,8.1661,0.0061491,0,0,0,0
285,0.091004,8.2324,0.0064164,0,0,0,0
287.5,0.092768,8.2944,0.0061481,0,0,0,0
290,0.095042,8.357,0.0059135,0,0,0,0
292.5,0.098665,8.4215,0.0064849,0,0,0,0
295,0.10131,8.4843,0.0075256,0,0,0,0
297.5,0.10429,8.5465,0.0072904,0,0,0,0
300,0.10795,8.6061,0.006923,0,0,0,0
302.5,0.11083,8.6701,0.0077985,0,0,0,0
305,0.11327,8.7297,0.0086376,0,0,0,0
307.5,0.11692,8.7896,0.0087724,0,0,0,0
310,0.12139,8.8505,0.00847,0,0,0,0
312.5,0.12471,8.9089,0.0087377,0,0,0,0
315,0.12759,8.9667,0.0097741,0,0,0,0
317.5,0.13168,9.0253,0.010175,0,0,0,0
320,0.13564,9.0837,0.0095394,0,0,0,0
322.5,0.13944,9.1409,0.0098384,0,0,0,0
325,0.14374,9.2011,0.011008,0,0,0,0
327.5,0.14881,9.258,0.011645,0,0,0,0
330,0.15186,9.3154,0.01121,0,0,0,0
332.5,0.15586,9.3737,0.011276,0,0,0,0
335,0.1612,9.4282,0.012079,0,0,0,0
337.5,0.16581,9.4857,0.013046,0,0,0,0
340,0.1702,9.5392,0.013047,0,0,0,0
342.5,0.17528,9.5948,0.012414,0,0,0,0
345,0.18029,9.6511,0.013415,0,0,0,0
347.5,0.18421,9.705,0.014447,0,0,0,0
350,0.18969,9.7584,0.014814,0,0,0,0
352.5,0.19571,9.811,0.014316,0,0,0,0
355,0.20065,9.8654,0.015018,0,0,0,0
357.5,0.20576,9.9178,0.016149,0,0,0,0
360,0.21168,9.9694,0.016382,0,0,0,0
362.5,0.21665,10.022,0.016282,0,0,0,0
365,0.22223,10.073,0.016814,0,0,0,0
367.5,0.22852,10.125,0.017746,0,0,0,0
370,0.23467,10.178,0.018607,0,0,0,0
372.5,0.24046,10.225,0.018472,0,0,0,0
375,0.24729,10.277,0.018606,0,0,0,0
377.5,0.25276,10.328,0.019401,0,0,0,0
380,0.25852,10.374,0.020394,0,0,0,0
382.5,0.26551,10.422,0.020857,0,0,0,0
385,0.27207,10.472,0.020989,0,0,0,0
387.5,0.27826,10.516,0.02145,0,0,0,0
390,0.2859,10.565,0.022343,0,0,0,0
392.5,0.29236,10.61,0.022773,0,0,0,0
395,0.29865,10.656,0.023037,0,0,0,0
397.5,0.30565,10.702,0.023764,0,0,0,0
400,0.31261,10.748,0.024655,0,0,0,0
402.5,0.31965,10.791,0.025049,0,0,0,0
405,0.32793,10.834,0.025807,0,0,0,0
407.5,0.33489,10.878,0.026401,0,0,0,0
410,0.34247,10.92,0.027156,0,0,0,0
412.5,0.35065,10.962,0.028077,0,0,0,0
415,0.35701,11.004,0.028669,0,0,0,0
417.5,0.36498,11.049,0.029391,0,0,0,0
420,0.3734,11.091,0.030015,0,0,0,0
422.5,0.38081,11.129,0.030965,0,0,0,0
425,0.38949,11.169,0.031815,0,0,0,0
427.5,0.39832,11.21,0.032371,0,0,0,0
430,0.40606,11.248,0.032929,0,0,0,0
432.5,0.41525,11.289,0.034072,0,0,0,0
435,0.42282,11.325,0.034954,0,0,0,0
437.5,0.43121,11.364,0.035835,0,0,0,0
440,0.44054,11.402,0.036453,0,0,0,0
442.5,0.44859,11.439,0.037495,0,0,0,0
445,0.45808,11.477,0.038472,0,0,0,0
447.5,0.46809,11.51,0.039285,0,0,0,0
450,0.47681,11.546,0.040194,0,0,0,0
452.5,0.48698,11.58,0.041686,0,0,0,0
455,0.49554,11.614,0.042433,0,0,0,0
457.5,0.50422,11.646,0.04321,0,0,0,0
460,0.51453,11.68,0.044375,0,0,0,0
462.5,0.52294,11.715,0.045667,0,0,0,0
465,0.53312,11.744,0.046505,0,0,0,0
467.5,0.54319,11.777,0.047376,0,0,0,0
470,0.55259,11.81,0.048825,0,0,0,0
472.5,0.56371,11.837,0.04995,0,0,0,0
475,0.57358,11.865,0.050562,0,0,0,0
477.5,0.58406,11.898,0.05191,0,0,0,0
480,0.59443,11.927,0.053255,0,0,0,0
482.5,0.6042,11.955,0.054505,0,0,0,0
485,0.616,11.983,0.055752,0,0,0,0
487.5,0.6259,12.011,0.056773,0,0,0,0
490,0.63672,12.036,0.058752,0,0,0,0
492.5,0.64783,12.062,0.059961,0,0,0,0
495,0.65855,12.088,0.061265,0,0,0,0
497.5,0.67082,12.114,0.062885,0,0,0,0
500,0.68122,12.14,0.064439,0,0,0,0
502.5,0.69333,12.162,0.065706,0,0,0,0
505,0.70471,12.185,0.067287,0,0,0,0
507.5,0.716,12.21,0.068738,0,0,0,0
510,0.72844,12.233,0.070409,0,0,0,0
512.5,0.73929,12.251,0.072581,0,0,0,0
515,0.75224,12.273,0.074528,0,0,0,0
517.5,0.76305,12.295,0.076063,0,0,0,0
520,0.77569,12.314,0.077534,0,0,0,0
522.5,0.78833,12.332,0.079721,0,0,0,0
525,0.79999,12.351,0.081716,0,0,0,0
527.5,0.81341,12.365,0.083334,0,0,0,0
530,0.8255,12.384,0.085105,0,0,0,0
532.5,0.83889,12.4,0.08743,0,0,0,0
535,0.85125,12.416,0.089627,0,0,0,0
537.5,0.86454,12.43,0.091479,0,0,0,0
540,0.87761,12.442,0.093482,0,0,0,0
542.5,0.89056,12.456,0.096218,0,0,0,0
545,0.90489,12.47,0.098334,0,0,0,0
547.5,0.91732,12.481,0.10112,0,0,0,0
550,0.93176,12.491,0.10347,0,0,0,0
552.5,0.94514,12.503,0.10612,0,0,0,0
555,0.95988,12.515,0.10879,0,0,0,0
557.5,0.97359,12.521,0.11175,0,0,0,0
560,0.9883,12.529,0.1148,0,0,0,0
562.5,1.0026,12.534,0.11802,0,0,0,0
565,1.0169,12.542,0.12096,0,0,0,0
567.5,1.0316,12.546,0.1238,0,0,0,0
570,1.0461,12.548,0.1275,0,0,0,0
572.5,1.0616,12.551,0.13106,0,0,0,0
575,1.0757,12.553,0.13488,0,0,0,0
577.5,1.0917,12.554,0.13848,0,0,0,0
580,1.1061,12.55,0.1427,0,0,0,0
582.5,1.1228,12.548,0.14709,0,0,0,0
585,1.1377,12.545,0.15149,0,0,0,0
587.5,1.1541,12.542,0.15598,0,0,0,0
590,1.1699,12.533,0.16071,0,0,0,0
592.5,1.1868,12.526,0.16537,0,0,0,0
595,1.2023,12.519,0.1702,0,0,0,0
597.5,1.2195,12.507,0.17529,0,0,0,0
600,1.2359,12.492,0.18089,0,0,0,0
602.5,1.2534,12.477,0.1866,0,0,0,0
605,1.2699,12.455,0.19275,0,0,0,0
607.5,1.2879,12.438,0.19829,0,0,0,0
610,1.3048,12.418,0.20465,0,0,0,0
612.5,1.3233,12.396,0.21137,0,0,0,0
615,1.3404,12.372,0.21846,0,0,0,0
617.5,1.3593,12.342,0.22559,0,0,0,0
620,1.3768,12.313,0.23298,0,0,0,0
622.5,1.3958,12.277,0.24037,0,0,0,0
625,1.4135,12.241,0.24809,0,0,0,0
627.5,1.4334,12.204,0.25605,0,0,0,0
630,1.4518,12.16,0.26442,0,0,0,0
632.5,1.4717,12.112,0.2727,0,0,0,0
635,1.4908,12.056,0.2817,0,0,0,0
637.5,1.511,12,0.29042,0,0,0,0
640,1.531,11.938,0.29984,0,0,0,0
642.5,1.5513,11.869,0.3102,0,0,0,0
645,1.5728,11.792,0.32031,0,0,0,0
647.5,1.5934,11.703,0.3317,0,0,0,0
649,1.6077,11.632,0.33856,0,0,0,0