Folder: ethz/polyN_optimization/DP780_results/DATA (part 3)

File: NT6_90_3.csv
Time[s],Displacement[mm],Force[kN],AxStrain_1,AxStrain_2,Thickness[mm],OuterWidth[mm],InnerWidth[mm]
0,0,-0.047864,0,0,1.5007,19.95,10.075
3,0.001154,0.13527,-0.00025803,0,0,0,0
6,0.001591,0.27541,-0.00012501,0,0,0,0
9,0.001887,0.40758,0.00016099,0,0,0,0
12,0.002754,0.52856,3.8999e-05,0,0,0,0
15,0.00339,0.64819,6.0998e-05,0,0,0,0
18,0.003597,0.76767,4.3999e-05,0,0,0,0
21,0.00377,0.89207,7e-06,0,0,0,0
24,0.00449,1.0116,9.0996e-05,0,0,0,0
27,0.006184,1.1295,8.4996e-05,0,0,0,0
30,0.006155,1.2429,-5.4001e-05,0,0,0,0
33,0.00625,1.3536,-0.00017201,0,0,0,0
36,0.007089,1.4567,0.00023697,0,0,0,0
39,0.008432,1.5593,0.00040892,0,0,0,0
42,0.007849,1.6595,0.00022697,0,0,0,0
45,0.00803,1.7575,0.00026696,0,0,0,0
48,0.00949,1.8543,0.00040892,0,0,0,0
51,0.010466,1.9479,0.00041591,0,0,0,0
54,0.009603,2.0425,0.00021298,0,0,0,0
57,0.010164,2.1369,0.00019598,0,0,0,0
60,0.011722,2.2289,0.00033494,0,0,0,0
63,0.012045,2.3221,0.00047988,0,0,0,0
66,0.011296,2.4115,0.00045989,0,0,0,0
69,0.012552,2.501,0.00070075,0,0,0,0
72,0.014419,2.5882,0.00061281,0,0,0,0
75,0.013737,2.6749,0.00043091,0,0,0,0
78,0.0133,2.7641,0.00019098,0,0,0,0
81,0.015027,2.8495,0.00056684,0,0,0,0
84,0.016793,2.9378,0.00042091,0,0,0,0
87,0.015551,3.0219,0.00041791,0,0,0,0
90,0.01573,3.1076,0.00059982,0,0,0,0
93,0.01752,3.1919,0.00074172,0,0,0,0
96,0.018377,3.2788,0.00076271,0,0,0,0
99,0.017522,3.3652,0.00059182,0,0,0,0
102,0.017585,3.4501,0.00050087,0,0,0,0
105,0.019868,3.5388,0.00062381,0,0,0,0
108,0.0205,3.6209,0.00073873,0,0,0,0
111,0.019313,3.7048,0.00034894,0,0,0,0
114,0.019878,3.7897,0.00051087,0,0,0,0
117,0.02167,3.8753,0.00070975,0,0,0,0
120,0.022384,3.9597,0.00061281,0,0,0,0
123,0.021434,4.0434,0.00057983,0,0,0,0
126,0.02263,4.1243,0.00074972,0,0,0,0
129,0.024095,4.2092,0.00098751,0,0,0,0
132,0.024478,4.2893,0.00071774,0,0,0,0
135,0.023918,4.3727,0.00058383,0,0,0,0
138,0.025153,4.452,0.00058383,0,0,0,0
141,0.026522,4.5389,0.0010884,0,0,0,0
144,0.026607,4.62,0.00081866,0,0,0,0
147,0.026148,4.6988,0.00071674,0,0,0,0
150,0.027281,4.7815,0.0010554,0,0,0,0
153,0.028381,4.8613,0.0012252,0,0,0,0
156,0.028637,4.9421,0.00085663,0,0,0,0
159,0.028627,5.0218,0.00072474,0,0,0,0
162,0.029796,5.102,0.0008946,0,0,0,0
165,0.030626,5.1815,0.0011653,0,0,0,0
168,0.031048,5.2668,0.00096054,0,0,0,0
171,0.031101,5.3461,0.00082366,0,0,0,0
174,0.03234,5.4278,0.0011613,0,0,0,0
177,0.032939,5.5124,0.0011274,0,0,0,0
180,0.033809,5.5917,0.0010944,0,0,0,0
183,0.034539,5.667,0.0010614,0,0,0,0
186,0.035369,5.7508,0.001403,0,0,0,0
189,0.035795,5.8278,0.001405,0,0,0,0
192,0.036729,5.9032,0.0011374,0,0,0,0
195,0.03787,5.9855,0.00093456,0,0,0,0
198,0.038026,6.0627,0.0017045,0,0,0,0
201,0.0387,6.1376,0.001408,0,0,0,0
204,0.040514,6.2199,0.0012702,0,0,0,0
207,0.041515,6.2945,0.001403,0,0,0,0
210,0.041302,6.3749,0.0017055,0,0,0,0
213,0.042312,6.4498,0.0019092,0,0,0,0
216,0.043995,6.5242,0.0015408,0,0,0,0
219,0.046596,6.6017,0.0018114,0,0,0,0
222,0.044636,6.6782,0.0021856,0,0,0,0
225,0.046624,6.7535,0.0018882,0,0,0,0
228,0.049085,6.8278,0.0015877,0,0,0,0
231,0.04935,6.9024,0.0017575,0,0,0,0
234,0.04941,6.9756,0.0023682,0,0,0,0
237,0.051163,7.0487,0.001997,0,0,0,0
240,0.053833,7.1217,0.0019271,0,0,0,0
243,0.054475,7.1951,0.0021617,0,0,0,0
246,0.05488,7.27,0.0025986,0,0,0,0
249,0.05718,7.3429,0.0023273,0,0,0,0
252,0.059575,7.4149,0.0022255,0,0,0,0
255,0.06018,7.4887,0.0026295,0,0,0,0
258,0.060986,7.5605,0.0031341,0,0,0,0
261,0.063686,7.6311,0.0027313,0,0,0,0
264,0.065239,7.7057,0.0028001,0,0,0,0
267,0.066586,7.7763,0.0032378,0,0,0,0
270,0.068687,7.8442,0.003745,0,0,0,0
273,0.070448,7.9148,0.0033793,0,0,0,0
276,0.072203,7.9842,0.0033813,0,0,0,0
279,0.075176,8.0518,0.0042271,0,0,0,0
282,0.077097,8.1192,0.0041295,0,0,0,0
285,0.07831,8.1903,0.003727,0,0,0,0
288,0.08067,8.2596,0.0039651,0,0,0,0
291,0.084383,8.3238,0.0048413,0,0,0,0
294,0.085897,8.3919,0.0047079,0,0,0,0
297,0.087314,8.4592,0.0043734,0,0,0,0
300,0.0913,8.5292,0.0050144,0,0,0,0
303,0.094508,8.593,0.0058856,0,0,0,0
306,0.096331,8.6593,0.0053855,0,0,0,0
309,0.099103,8.724,0.005283,0,0,0,0
312,0.10235,8.7907,0.0062216,0,0,0,0
315,0.10507,8.8566,0.0068932,0,0,0,0
318,0.10929,8.921,0.0061202,0,0,0,0
321,0.11274,8.9835,0.0064531,0,0,0,0
324,0.11445,9.047,0.0079255,0,0,0,0
327,0.11839,9.1125,0.0076884,0,0,0,0
330,0.12328,9.1789,0.0074234,0,0,0,0
333,0.12624,9.2386,0.0082578,0,0,0,0
336,0.12917,9.302,0.0093284,0,0,0,0
339,0.13393,9.3652,0.008592,0,0,0,0
342,0.13743,9.4272,0.0086247,0,0,0,0
345,0.14154,9.4907,0.0099949,0,0,0,0
348,0.14626,9.5534,0.010732,0,0,0,0
351,0.14927,9.6121,0.0099652,0,0,0,0
354,0.15412,9.6735,0.010534,0,0,0,0
357,0.16006,9.7372,0.012008,0,0,0,0
360,0.16393,9.7942,0.011743,0,0,0,0
363,0.16841,9.8556,0.011413,0,0,0,0
366,0.17312,9.9169,0.012781,0,0,0,0
369,0.17753,9.9736,0.013617,0,0,0,0
372,0.18397,10.033,0.012989,0,0,0,0
375,0.18915,10.089,0.013223,0,0,0,0
378,0.19275,10.149,0.01472,0,0,0,0
381,0.19898,10.209,0.014958,0,0,0,0
384,0.20413,10.264,0.014527,0,0,0,0
387,0.20972,10.32,0.015554,0,0,0,0
390,0.21653,10.377,0.016816,0,0,0,0
393,0.22117,10.432,0.016614,0,0,0,0
396,0.22628,10.485,0.016811,0,0,0,0
399,0.2336,10.538,0.018199,0,0,0,0
402,0.23936,10.592,0.018796,0,0,0,0
405,0.24636,10.646,0.018761,0,0,0,0
408,0.25239,10.699,0.019487,0,0,0,0
411,0.2571,10.75,0.020546,0,0,0,0
414,0.26501,10.803,0.020942,0,0,0,0
417,0.27188,10.853,0.021305,0,0,0,0
420,0.27868,10.906,0.022264,0,0,0,0
423,0.28635,10.954,0.02332,0,0,0,0
426,0.29214,11.001,0.023551,0,0,0,0
429,0.29947,11.055,0.024308,0,0,0,0
432,0.30736,11.103,0.025167,0,0,0,0
435,0.31404,11.153,0.025792,0,0,0,0
438,0.3234,11.2,0.026581,0,0,0,0
441,0.33023,11.247,0.027338,0,0,0,0
444,0.33743,11.296,0.028259,0,0,0,0
447,0.34561,11.34,0.02898,0,0,0,0
450,0.35274,11.394,0.0298,0,0,0,0
453,0.36213,11.429,0.03062,0,0,0,0
456,0.37034,11.475,0.031471,0,0,0,0
459,0.37839,11.521,0.032518,0,0,0,0
462,0.38731,11.564,0.0334,0,0,0,0
465,0.39477,11.603,0.034054,0,0,0,0
468,0.40373,11.649,0.034936,0,0,0,0
471,0.41241,11.693,0.036045,0,0,0,0
474,0.42136,11.73,0.036891,0,0,0,0
477,0.43133,11.775,0.038129,0,0,0,0
480,0.43971,11.813,0.039169,0,0,0,0
483,0.45015,11.854,0.039946,0,0,0,0
486,0.45846,11.892,0.040954,0,0,0,0
489,0.46822,11.931,0.042768,0,0,0,0
492,0.47788,11.968,0.043124,0,0,0,0
495,0.48727,12.006,0.044255,0,0,0,0
498,0.49829,12.041,0.045965,0,0,0,0
501,0.50825,12.077,0.047384,0,0,0,0
504,0.51912,12.115,0.047996,0,0,0,0
507,0.52855,12.148,0.049572,0,0,0,0
510,0.53912,12.184,0.051434,0,0,0,0
513,0.55006,12.218,0.052235,0,0,0,0
516,0.5604,12.249,0.053582,0,0,0,0
519,0.57266,12.286,0.055563,0,0,0,0
522,0.58316,12.313,0.056681,0,0,0,0
525,0.59586,12.342,0.058022,0,0,0,0
528,0.60673,12.376,0.059933,0,0,0,0
531,0.61899,12.402,0.061649,0,0,0,0
534,0.62973,12.432,0.063045,0,0,0,0
537,0.64151,12.457,0.065106,0,0,0,0
540,0.65323,12.484,0.066972,0,0,0,0
543,0.66529,12.514,0.068392,0,0,0,0
546,0.67825,12.54,0.070441,0,0,0,0
549,0.68963,12.561,0.072611,0,0,0,0
552,0.70371,12.588,0.074087,0,0,0,0
555,0.71573,12.615,0.076343,0,0,0,0
558,0.72991,12.637,0.078408,0,0,0,0
561,0.7421,12.656,0.080498,0,0,0,0
564,0.75622,12.677,0.08299,0,0,0,0
567,0.76888,12.692,0.08532,0,0,0,0
570,0.78269,12.711,0.087769,0,0,0,0
573,0.79566,12.729,0.090583,0,0,0,0
576,0.80961,12.746,0.093172,0,0,0,0
579,0.82335,12.761,0.095603,0,0,0,0
582,0.83744,12.775,0.098517,0,0,0,0
585,0.85152,12.789,0.10136,0,0,0,0
588,0.8657,12.801,0.10429,0,0,0,0
591,0.88087,12.812,0.10733,0,0,0,0
594,0.89535,12.822,0.11036,0,0,0,0
597,0.91079,12.83,0.1139,0,0,0,0
600,0.92578,12.84,0.1176,0,0,0,0
603,0.94173,12.847,0.12118,0,0,0,0
606,0.95652,12.848,0.12491,0,0,0,0
609,0.97327,12.85,0.12953,0,0,0,0
612,0.9883,12.852,0.13404,0,0,0,0
615,1.0047,12.849,0.13846,0,0,0,0
618,1.0208,12.849,0.14296,0,0,0,0
621,1.0376,12.844,0.14823,0,0,0,0
624,1.0542,12.837,0.15378,0,0,0,0
627,1.0713,12.828,0.15934,0,0,0,0
630,1.0882,12.817,0.16573,0,0,0,0
633,1.1059,12.805,0.17184,0,0,0,0
636,1.1241,12.788,0.1783,0,0,0,0
639,1.1416,12.765,0.1853,0,0,0,0
642,1.1607,12.744,0.19242,0,0,0,0
645,1.1782,12.715,0.19986,0,0,0,0
648,1.1982,12.688,0.20738,0,0,0,0
651,1.2159,12.652,0.21582,0,0,0,0
654,1.2365,12.615,0.22431,0,0,0,0
657,1.2552,12.569,0.23309,0,0,0,0
660,1.2756,12.522,0.24206,0,0,0,0
663,1.2962,12.465,0.25185,0,0,0,0
666,1.3163,12.409,0.26217,0,0,0,0
669,1.3386,12.341,0.27283,0,0,0,0
672,1.359,12.266,0.28367,0,0,0,0
675,1.3824,12.168,0.29554,0,0,0,0
675.5,1.3869,12.124,0.29825,0,0,0,0

File: NT20_00_3.csv
Time[s],Displacement[mm],Force[kN],AxStrain_1,AxStrain_2,Thickness[mm],OuterWidth[mm],InnerWidth[mm]
0,0,-0.026217,0,0,1.497,19.957,10.045
3,0.000598,0.15124,-3.4001e-05,0,0,0,0
6,0.001262,0.2891,5.4998e-05,0,0,0,0
9,0.001663,0.41883,9.1996e-05,0,0,0,0
12,0.002043,0.54122,0.00017398,0,0,0,0
15,0.002386,0.66004,0.00020298,0,0,0,0
18,0.002679,0.78341,0.00038493,0,0,0,0
21,0.003348,0.9019,0.00019598,0,0,0,0
24,0.004237,1.0156,0.00013899,0,0,0,0
27,0.004011,1.1273,0.00024697,0,0,0,0
30,0.004532,1.2391,0.0004399,0,0,0,0
33,0.005624,1.3399,0.00020998,0,0,0,0
36,0.005938,1.4433,0.00081767,0,0,0,0
39,0.005921,1.5468,0.00031795,0,0,0,0
42,0.006965,1.644,0.00034794,0,0,0,0
45,0.008224,1.7407,0.00049688,0,0,0,0
48,0.007658,1.8324,0.00054085,0,0,0,0
51,0.008098,1.9287,0.00053486,0,0,0,0
54,0.009329,2.0243,0.00060881,0,0,0,0
57,0.009788,2.1184,0.00061881,0,0,0,0
60,0.009525,2.2099,0.00084864,0,0,0,0
63,0.010455,2.303,0.00050787,0,0,0,0
66,0.012186,2.3925,0.0006398,0,0,0,0
69,0.011712,2.4803,0.00073773,0,0,0,0
72,0.01172,2.5713,0.00049488,0,0,0,0
75,0.013064,2.6596,0.00064679,0,0,0,0
78,0.014595,2.7424,0.00083965,0,0,0,0
81,0.013719,2.8303,0.00049888,0,0,0,0
84,0.01376,2.9192,0.00053186,0,0,0,0
87,0.015375,3.0013,0.00065079,0,0,0,0
90,0.016354,3.0924,0.00086063,0,0,0,0
93,0.015746,3.1707,0.00073473,0,0,0,0
96,0.016159,3.2544,0.00066478,0,0,0,0
99,0.017896,3.339,0.00070175,0,0,0,0
102,0.018404,3.4259,0.0007727,0,0,0,0
105,0.017628,3.5095,0.00082666,0,0,0,0
108,0.018478,3.5939,0.00075272,0,0,0,0
111,0.020324,3.6757,0.00066478,0,0,0,0
114,0.020603,3.7578,0.00098252,0,0,0,0
117,0.020148,3.8392,0.00098252,0,0,0,0
120,0.021484,3.9187,0.00098252,0,0,0,0
123,0.022385,4.0016,0.00098352,0,0,0,0
126,0.022674,4.0784,0.0012872,0,0,0,0
129,0.022693,4.1588,0.00094855,0,0,0,0
132,0.023899,4.2368,0.0010844,0,0,0,0
135,0.025,4.317,0.0011184,0,0,0,0
138,0.025257,4.3961,0.0013211,0,0,0,0
141,0.025448,4.4707,0.00091558,0,0,0,0
144,0.026718,4.5514,0.0012542,0,0,0,0
147,0.027655,4.6319,0.0012882,0,0,0,0
150,0.027946,4.7044,0.0012542,0,0,0,0
153,0.028341,4.7834,0.0012882,0,0,0,0
156,0.029783,4.8621,0.0011194,0,0,0,0
159,0.030278,4.9364,0.0012552,0,0,0,0
162,0.030877,5.0141,0.0011883,0,0,0,0
165,0.031305,5.0883,0.0012552,0,0,0,0
168,0.032309,5.1646,0.0011883,0,0,0,0
171,0.033109,5.2407,0.0015268,0,0,0,0
174,0.034042,5.3191,0.0016626,0,0,0,0
177,0.034944,5.3924,0.0015618,0,0,0,0
180,0.035877,5.4722,0.0015618,0,0,0,0
183,0.036475,5.5493,0.002001,0,0,0,0
186,0.037817,5.6239,0.0018323,0,0,0,0
189,0.039022,5.7001,0.0016986,0,0,0,0
192,0.039825,5.7762,0.0019012,0,0,0,0
195,0.040423,5.8502,0.002003,0,0,0,0
198,0.041699,5.9246,0.0019691,0,0,0,0
201,0.043956,5.9971,0.0018343,0,0,0,0
204,0.044521,6.0706,0.0020699,0,0,0,0
207,0.044715,6.1466,0.0020699,0,0,0,0
210,0.046124,6.2247,0.0021696,0,0,0,0
213,0.048583,6.2995,0.0022046,0,0,0,0
216,0.04925,6.374,0.0021377,0,0,0,0
219,0.050119,6.4485,0.0027442,0,0,0,0
222,0.051698,6.5234,0.0026096,0,0,0,0
225,0.054057,6.6037,0.0026106,0,0,0,0
228,0.055299,6.6847,0.0026455,0,0,0,0
231,0.056307,6.7521,0.0030842,0,0,0,0
234,0.058327,6.8302,0.0033544,0,0,0,0
237,0.060824,6.9032,0.0029506,0,0,0,0
240,0.062405,6.9782,0.0030852,0,0,0,0
243,0.063886,7.0541,0.0035577,0,0,0,0
246,0.066076,7.128,0.0035258,0,0,0,0
249,0.068133,7.2043,0.0035577,0,0,0,0
252,0.07039,7.284,0.0036573,0,0,0,0
255,0.073019,7.3558,0.0040956,0,0,0,0
258,0.074973,7.4322,0.003994,0,0,0,0
261,0.076926,7.5071,0.0039601,0,0,0,0
264,0.08003,7.5795,0.0043973,0,0,0,0
267,0.083675,7.6531,0.0050373,0,0,0,0
270,0.085833,7.7276,0.0047358,0,0,0,0
273,0.088296,7.8008,0.0049716,0,0,0,0
276,0.092247,7.8748,0.005477,0,0,0,0
279,0.095487,7.9452,0.0060845,0,0,0,0
282,0.098525,8.0159,0.0057156,0,0,0,0
285,0.10237,8.0914,0.0058161,0,0,0,0
288,0.10558,8.1612,0.0069915,0,0,0,0
291,0.1095,8.2336,0.0072258,0,0,0,0
294,0.11416,8.3029,0.0068932,0,0,0,0
297,0.11845,8.3745,0.0072258,0,0,0,0
300,0.12176,8.4439,0.0081636,0,0,0,0
303,0.12645,8.5095,0.0081973,0,0,0,0
306,0.13115,8.5776,0.0081973,0,0,0,0
309,0.13628,8.648,0.0088339,0,0,0,0
312,0.14124,8.711,0.0099731,0,0,0,0
315,0.14618,8.7768,0.0096047,0,0,0,0
318,0.1506,8.8431,0.0096374,0,0,0,0
321,0.15685,8.9114,0.010743,0,0,0,0
324,0.16263,8.9745,0.011645,0,0,0,0
327,0.1678,9.0385,0.011077,0,0,0,0
330,0.17391,9.1022,0.01121,0,0,0,0
333,0.17908,9.1647,0.012546,0,0,0,0
336,0.18482,9.227,0.013082,0,0,0,0
339,0.19233,9.2876,0.012482,0,0,0,0
342,0.19814,9.3514,0.013416,0,0,0,0
345,0.20469,9.4091,0.014581,0,0,0,0
348,0.21125,9.4696,0.014549,0,0,0,0
351,0.21713,9.5271,0.01455,0,0,0,0
354,0.22456,9.5865,0.015814,0,0,0,0
357,0.232,9.6454,0.016546,0,0,0,0
360,0.23872,9.7052,0.016513,0,0,0,0
363,0.24693,9.7625,0.01668,0,0,0,0
366,0.25318,9.8166,0.018175,0,0,0,0
369,0.26096,9.8737,0.018705,0,0,0,0
372,0.26937,9.9291,0.018608,0,0,0,0
375,0.27691,9.9823,0.01947,0,0,0,0
378,0.28566,10.037,0.020363,0,0,0,0
381,0.29347,10.092,0.020662,0,0,0,0
384,0.30111,10.141,0.021293,0,0,0,0
387,0.30962,10.196,0.022054,0,0,0,0
390,0.31753,10.245,0.022879,0,0,0,0
393,0.32706,10.295,0.023375,0,0,0,0
396,0.33551,10.349,0.024202,0,0,0,0
399,0.3447,10.396,0.025156,0,0,0,0
402,0.3541,10.448,0.025718,0,0,0,0
405,0.36228,10.496,0.026376,0,0,0,0
408,0.37238,10.542,0.027462,0,0,0,0
411,0.38151,10.591,0.027989,0,0,0,0
414,0.39144,10.639,0.028943,0,0,0,0
417,0.40172,10.683,0.029895,0,0,0,0
420,0.41142,10.729,0.030388,0,0,0,0
423,0.4218,10.771,0.031141,0,0,0,0
426,0.43133,10.817,0.031992,0,0,0,0
429,0.4418,10.863,0.033008,0,0,0,0
432,0.45157,10.904,0.033825,0,0,0,0
435,0.46266,10.946,0.034641,0,0,0,0
438,0.47361,10.988,0.03549,0,0,0,0
441,0.48456,11.029,0.036209,0,0,0,0
444,0.49625,11.07,0.037382,0,0,0,0
447,0.50656,11.11,0.03826,0,0,0,0
450,0.51785,11.149,0.038878,0,0,0,0
453,0.52867,11.188,0.040308,0,0,0,0
456,0.5405,11.225,0.041248,0,0,0,0
459,0.55151,11.263,0.041993,0,0,0,0
462,0.56382,11.302,0.043161,0,0,0,0
465,0.57551,11.337,0.044357,0,0,0,0
468,0.58768,11.371,0.045099,0,0,0,0
471,0.59975,11.408,0.046132,0,0,0,0
474,0.61154,11.439,0.047519,0,0,0,0
477,0.62432,11.473,0.048678,0,0,0,0
480,0.63588,11.509,0.049807,0,0,0,0
483,0.64889,11.54,0.050897,0,0,0,0
486,0.66085,11.573,0.052247,0,0,0,0
489,0.67414,11.605,0.053464,0,0,0,0
492,0.68661,11.636,0.05481,0,0,0,0
495,0.70067,11.666,0.055961,0,0,0,0
498,0.71331,11.694,0.057397,0,0,0,0
501,0.72724,11.723,0.058737,0,0,0,0
504,0.74022,11.751,0.060139,0,0,0,0
507,0.75418,11.78,0.061314,0,0,0,0
510,0.76709,11.806,0.06265,0,0,0,0
513,0.78112,11.837,0.064236,0,0,0,0
516,0.79436,11.858,0.065472,0,0,0,0
519,0.80849,11.887,0.06661,0,0,0,0
522,0.82218,11.912,0.068127,0,0,0,0
525,0.83699,11.935,0.069548,0,0,0,0
528,0.85064,11.959,0.071311,0,0,0,0
531,0.86595,11.98,0.072916,0,0,0,0
534,0.88015,12.002,0.074232,0,0,0,0
537,0.89533,12.027,0.076365,0,0,0,0
540,0.90952,12.047,0.07771,0,0,0,0
543,0.92466,12.07,0.079273,0,0,0,0
546,0.9396,12.088,0.081174,0,0,0,0
549,0.95468,12.11,0.082979,0,0,0,0
552,0.96925,12.128,0.084783,0,0,0,0
555,0.98517,12.15,0.08649,0,0,0,0
558,0.99977,12.168,0.088316,0,0,0,0
561,1.016,12.187,0.090356,0,0,0,0
564,1.0312,12.203,0.092176,0,0,0,0
567,1.0472,12.218,0.093993,0,0,0,0
570,1.0627,12.234,0.096237,0,0,0,0
573,1.0794,12.25,0.098506,0,0,0,0
576,1.0946,12.265,0.10049,0,0,0,0
579,1.1115,12.28,0.10266,0,0,0,0
582,1.1275,12.293,0.10474,0,0,0,0
585,1.1444,12.308,0.10686,0,0,0,0
588,1.1611,12.32,0.10944,0,0,0,0
591,1.1779,12.33,0.11162,0,0,0,0
594,1.1944,12.339,0.11382,0,0,0,0
597,1.2112,12.35,0.11666,0,0,0,0
600,1.2287,12.362,0.11909,0,0,0,0
603,1.2451,12.37,0.12146,0,0,0,0
606,1.2632,12.38,0.12403,0,0,0,0
609,1.2796,12.387,0.12674,0,0,0,0
612,1.2979,12.395,0.12984,0,0,0,0
615,1.3147,12.401,0.13247,0,0,0,0
618,1.3323,12.409,0.13537,0,0,0,0
621,1.3496,12.411,0.13858,0,0,0,0
624,1.3677,12.416,0.14149,0,0,0,0
627,1.3863,12.421,0.14501,0,0,0,0
630,1.4039,12.427,0.1481,0,0,0,0
633,1.4228,12.43,0.15165,0,0,0,0
636,1.4406,12.433,0.15533,0,0,0,0
639,1.4595,12.433,0.15848,0,0,0,0
642,1.4782,12.433,0.1624,0,0,0,0
645,1.4973,12.434,0.16612,0,0,0,0
648,1.5158,12.43,0.17018,0,0,0,0
651,1.5347,12.431,0.17385,0,0,0,0
654,1.554,12.424,0.17776,0,0,0,0
657,1.5727,12.422,0.18248,0,0,0,0
660,1.5924,12.418,0.18695,0,0,0,0
663,1.6114,12.411,0.19148,0,0,0,0
666,1.6313,12.404,0.19646,0,0,0,0
669,1.6509,12.398,0.20158,0,0,0,0
672,1.6703,12.39,0.20616,0,0,0,0
675,1.691,12.382,0.21178,0,0,0,0
678,1.7105,12.369,0.21743,0,0,0,0
681,1.7312,12.357,0.22323,0,0,0,0
684,1.7513,12.344,0.22943,0,0,0,0
687,1.7716,12.33,0.23554,0,0,0,0
690,1.7929,12.314,0.24196,0,0,0,0
693,1.813,12.297,0.24881,0,0,0,0
696,1.8342,12.276,0.25532,0,0,0,0
699,1.8553,12.256,0.26239,0,0,0,0
702,1.8761,12.232,0.27003,0,0,0,0
705,1.8981,12.214,0.27772,0,0,0,0
708,1.919,12.184,0.28539,0,0,0,0
711,1.9409,12.154,0.29369,0,0,0,0
714,1.9629,12.123,0.30172,0,0,0,0
717,1.9844,12.09,0.31038,0,0,0,0
720,2.0073,12.052,0.31944,0,0,0,0
723,2.0292,12.011,0.32841,0,0,0,0
726,2.0511,11.971,0.33839,0,0,0,0
729,2.0744,11.925,0.34808,0,0,0,0
732,2.0972,11.871,0.3585,0,0,0,0
735,2.1207,11.815,0.36909,0,0,0,0
738,2.1451,11.739,0.37992,0,0,0,0