Folder: ethz/polyN_optimization/DP780_results/DATA (part 5)

File: NT20_90_3.csv
Time[s],Displacement[mm],Force[kN],AxStrain_1,AxStrain_2,Thickness[mm],OuterWidth[mm],InnerWidth[mm]
0,0,-0.033793,0,0,1.493,19.963,10.025
3,0.000795,0.14576,-0.00015001,0,0,0,0
6,0.001149,0.28419,0.00010799,0,0,0,0
9,0.001755,0.4135,-4.4001e-05,0,0,0,0
12,0.00242,0.53664,-0.00022002,0,0,0,0
15,0.002437,0.65455,-4.4001e-05,0,0,0,0
18,0.002691,0.7735,3e-06,0,0,0,0
21,0.003647,0.88903,0.00012499,0,0,0,0
24,0.004323,0.99986,-0.00021302,0,0,0,0
27,0.004171,1.1089,0.00014499,0,0,0,0
30,0.00477,1.2171,0.00017598,0,0,0,0
33,0.006196,1.3195,0.00026696,0,0,0,0
36,0.006416,1.4234,-0.00024303,0,0,0,0
39,0.006369,1.5245,0.00022597,0,0,0,0
42,0.007342,1.6239,0.00011199,0,0,0,0
45,0.008387,1.7191,6.3998e-05,0,0,0,0
48,0.008168,1.8119,0.00035494,0,0,0,0
51,0.008766,1.906,0.00046989,0,0,0,0
54,0.010227,2.0032,0.00034794,0,0,0,0
57,0.010613,2.0957,0.00047988,0,0,0,0
60,0.010255,2.1861,0.00031495,0,0,0,0
63,0.01132,2.2761,0.00028096,0,0,0,0
66,0.013011,2.3692,0.00057084,0,0,0,0
69,0.012079,2.4531,0.00031495,0,0,0,0
72,0.012114,2.5423,0.00047389,0,0,0,0
75,0.013301,2.6289,0.00053786,0,0,0,0
78,0.014698,2.716,0.00024697,0,0,0,0
81,0.014348,2.7989,0.00050087,0,0,0,0
84,0.014258,2.8849,0.00061881,0,0,0,0
87,0.015577,2.9672,0.00051787,0,0,0,0
90,0.017164,3.0504,0.0004399,0,0,0,0
93,0.016253,3.1356,0.00029396,0,0,0,0
96,0.016592,3.2168,0.00078769,0,0,0,0
99,0.018513,3.3009,0.00068676,0,0,0,0
102,0.019397,3.3849,0.00073673,0,0,0,0
105,0.019104,3.4665,0.00075472,0,0,0,0
108,0.019208,3.5517,0.0008966,0,0,0,0
111,0.02095,3.6364,0.00096054,0,0,0,0
114,0.021777,3.7144,0.00071075,0,0,0,0
117,0.021664,3.7968,0.00074472,0,0,0,0
120,0.021257,3.8784,0.00087961,0,0,0,0
123,0.022982,3.9607,0.00084564,0,0,0,0
126,0.024168,4.0421,0.0010145,0,0,0,0
129,0.024339,4.1222,0.0010485,0,0,0,0
132,0.024138,4.201,0.0010155,0,0,0,0
135,0.025594,4.2807,0.0010834,0,0,0,0
138,0.027218,4.3624,0.0011503,0,0,0,0
141,0.027357,4.4403,0.00084664,0,0,0,0
144,0.027392,4.5222,0.0011164,0,0,0,0
147,0.028712,4.6037,0.00081267,0,0,0,0
150,0.029931,4.682,0.00081267,0,0,0,0
153,0.030507,4.7613,0.00087961,0,0,0,0
156,0.030712,4.8398,0.0012852,0,0,0,0
159,0.031694,4.915,0.0012183,0,0,0,0
162,0.032676,4.994,0.001387,0,0,0,0
165,0.033524,5.0674,0.0013191,0,0,0,0
168,0.034135,5.1447,0.001421,0,0,0,0
171,0.034745,5.2185,0.0014889,0,0,0,0
174,0.035897,5.2973,0.0016576,0,0,0,0
177,0.036711,5.3753,0.0014879,0,0,0,0
180,0.037693,5.4508,0.0014549,0,0,0,0
183,0.039216,5.5258,0.0016576,0,0,0,0
186,0.039793,5.5992,0.0015897,0,0,0,0
189,0.040302,5.6686,0.0019271,0,0,0,0
192,0.041589,5.7423,0.001995,0,0,0,0
195,0.043348,5.8133,0.0019281,0,0,0,0
198,0.044362,5.8943,0.0020299,0,0,0,0
201,0.044533,5.9579,0.0021647,0,0,0,0
204,0.045448,6.0278,0.0020629,0,0,0,0
207,0.048052,6.0993,0.001995,0,0,0,0
210,0.049439,6.167,0.0022644,0,0,0,0
213,0.049644,6.2371,0.0024001,0,0,0,0
216,0.050119,6.3085,0.0026704,0,0,0,0
219,0.051608,6.3749,0.0024011,0,0,0,0
222,0.054247,6.4446,0.0027053,0,0,0,0
225,0.055295,6.5101,0.0026365,0,0,0,0
228,0.055938,6.5767,0.0027033,0,0,0,0
231,0.056952,6.6414,0.0032427,0,0,0,0
234,0.059285,6.7109,0.0032776,0,0,0,0
237,0.061384,6.7759,0.0030414,0,0,0,0
240,0.062367,6.8402,0.0029746,0,0,0,0
243,0.063315,6.9051,0.003176,0,0,0,0
246,0.065477,6.9726,0.0034112,0,0,0,0
249,0.067302,7.0321,0.0036135,0,0,0,0
252,0.068924,7.0983,0.0035467,0,0,0,0
255,0.070312,7.1578,0.0037828,0,0,0,0
258,0.07295,7.2228,0.0039512,0,0,0,0
261,0.074237,7.2838,0.0038496,0,0,0,0
264,0.075523,7.3458,0.0041524,0,0,0,0
267,0.07735,7.4071,0.0040518,0,0,0,0
270,0.080324,7.4716,0.0045566,0,0,0,0
273,0.08313,7.5289,0.0046581,0,0,0,0
276,0.084652,7.5919,0.0045576,0,0,0,0
279,0.085601,7.65,0.0047587,0,0,0,0
282,0.088172,7.712,0.0049597,0,0,0,0
285,0.091623,7.7765,0.0055317,0,0,0,0
288,0.094059,7.838,0.0058001,0,0,0,0
291,0.095952,7.8995,0.0054989,0,0,0,0
294,0.098318,7.9629,0.0054998,0,0,0,0
297,0.1017,8.0239,0.0058021,0,0,0,0
300,0.10407,8.0818,0.0065396,0,0,0,0
303,0.10667,8.1455,0.0066737,0,0,0,0
306,0.11026,8.2024,0.0067412,0,0,0,0
309,0.11351,8.2619,0.0069101,0,0,0,0
312,0.11557,8.3192,0.0072447,0,0,0,0
315,0.11861,8.3797,0.0080515,0,0,0,0
318,0.12277,8.4419,0.0077846,0,0,0,0
321,0.12707,8.5002,0.0074144,0,0,0,0
324,0.13095,8.5622,0.0080842,0,0,0,0
327,0.1344,8.624,0.0087199,0,0,0,0
330,0.13843,8.6822,0.009156,0,0,0,0
333,0.14181,8.7432,0.0086872,0,0,0,0
336,0.14634,8.8014,0.0091569,0,0,0,0
339,0.15202,8.8619,0.0097592,0,0,0,0
342,0.15649,8.9214,0.01006,0,0,0,0
345,0.16021,8.98,0.0097602,0,0,0,0
348,0.16514,9.0365,0.01043,0,0,0,0
351,0.17056,9.0946,0.011298,0,0,0,0
354,0.17499,9.1503,0.0117,0,0,0,0
357,0.1807,9.2099,0.011566,0,0,0,0
360,0.18679,9.2676,0.011699,0,0,0,0
363,0.19105,9.3251,0.013035,0,0,0,0
366,0.19713,9.3856,0.013468,0,0,0,0
369,0.20342,9.4424,0.013235,0,0,0,0
372,0.20927,9.4948,0.013502,0,0,0,0
375,0.21637,9.5489,0.014802,0,0,0,0
378,0.22273,9.6081,0.015102,0,0,0,0
381,0.22834,9.6647,0.014871,0,0,0,0
384,0.23527,9.7189,0.015503,0,0,0,0
387,0.24163,9.7735,0.016566,0,0,0,0
390,0.24805,9.8254,0.017131,0,0,0,0
393,0.2563,9.8802,0.016832,0,0,0,0
396,0.26316,9.9341,0.01763,0,0,0,0
399,0.26955,9.9861,0.018889,0,0,0,0
402,0.27709,10.035,0.01899,0,0,0,0
405,0.28389,10.091,0.019254,0,0,0,0
408,0.29241,10.14,0.019917,0,0,0,0
411,0.30062,10.195,0.021241,0,0,0,0
414,0.30819,10.246,0.021308,0,0,0,0
417,0.31756,10.293,0.021672,0,0,0,0
420,0.32415,10.342,0.022862,0,0,0,0
423,0.3327,10.392,0.023688,0,0,0,0
426,0.34126,10.44,0.024085,0,0,0,0
429,0.34947,10.486,0.024678,0,0,0,0
432,0.35989,10.532,0.025601,0,0,0,0
435,0.36827,10.579,0.026195,0,0,0,0
438,0.37756,10.626,0.026918,0,0,0,0
441,0.38683,10.673,0.027444,0,0,0,0
444,0.39528,10.718,0.02843,0,0,0,0
447,0.40576,10.762,0.029251,0,0,0,0
450,0.41464,10.806,0.029579,0,0,0,0
453,0.4257,10.851,0.030464,0,0,0,0
456,0.43567,10.892,0.031545,0,0,0,0
459,0.4454,10.933,0.032527,0,0,0,0
462,0.45568,10.976,0.033279,0,0,0,0
465,0.46508,11.015,0.033997,0,0,0,0
468,0.47579,11.056,0.03501,0,0,0,0
471,0.48576,11.098,0.035793,0,0,0,0
474,0.49749,11.138,0.036836,0,0,0,0
477,0.50787,11.178,0.037487,0,0,0,0
480,0.51923,11.215,0.0383,0,0,0,0
483,0.53052,11.249,0.039763,0,0,0,0
486,0.54154,11.288,0.040639,0,0,0,0
489,0.55279,11.328,0.041515,0,0,0,0
492,0.56354,11.362,0.042746,0,0,0,0
495,0.57591,11.401,0.044041,0,0,0,0
498,0.58683,11.433,0.044784,0,0,0,0
501,0.59991,11.466,0.045722,0,0,0,0
504,0.61137,11.502,0.047335,0,0,0,0
507,0.62448,11.535,0.048269,0,0,0,0
510,0.63598,11.57,0.048817,0,0,0,0
513,0.64865,11.598,0.050104,0,0,0,0
516,0.66072,11.629,0.051548,0,0,0,0
519,0.67299,11.662,0.052639,0,0,0,0
522,0.68573,11.693,0.053569,0,0,0,0
525,0.69854,11.72,0.054913,0,0,0,0
528,0.71196,11.749,0.056416,0,0,0,0
531,0.72484,11.779,0.057374,0,0,0,0
534,0.7386,11.808,0.058905,0,0,0,0
537,0.75168,11.835,0.06021,0,0,0,0
540,0.76557,11.859,0.061483,0,0,0,0
543,0.77834,11.889,0.062722,0,0,0,0
546,0.79288,11.913,0.064467,0,0,0,0
549,0.80572,11.94,0.06567,0,0,0,0
552,0.82009,11.961,0.067029,0,0,0,0
555,0.83337,11.986,0.068672,0,0,0,0
558,0.84878,12.013,0.070249,0,0,0,0
561,0.8624,12.032,0.071885,0,0,0,0
564,0.87738,12.057,0.073394,0,0,0,0
567,0.89205,12.079,0.075276,0,0,0,0
570,0.90732,12.099,0.077062,0,0,0,0
573,0.92176,12.12,0.079031,0,0,0,0
576,0.93734,12.142,0.080686,0,0,0,0
579,0.95204,12.156,0.082523,0,0,0,0
582,0.96755,12.177,0.084234,0,0,0,0
585,0.98266,12.196,0.086189,0,0,0,0
588,0.99814,12.215,0.088171,0,0,0,0
591,1.0132,12.23,0.090305,0,0,0,0
594,1.0288,12.248,0.092156,0,0,0,0
597,1.0441,12.264,0.094158,0,0,0,0
600,1.0602,12.277,0.096524,0,0,0,0
603,1.0763,12.294,0.09867,0,0,0,0
606,1.0921,12.31,0.10139,0,0,0,0
609,1.1089,12.324,0.10347,0,0,0,0
612,1.1248,12.334,0.10605,0,0,0,0
615,1.1422,12.345,0.10836,0,0,0,0
618,1.1583,12.358,0.11112,0,0,0,0
621,1.1758,12.368,0.11344,0,0,0,0
624,1.1922,12.381,0.11622,0,0,0,0
627,1.2103,12.389,0.11904,0,0,0,0
630,1.2265,12.396,0.12177,0,0,0,0
633,1.2444,12.406,0.12485,0,0,0,0
636,1.2622,12.413,0.12723,0,0,0,0
639,1.2791,12.42,0.12993,0,0,0,0
642,1.2973,12.427,0.13287,0,0,0,0
645,1.3142,12.432,0.13597,0,0,0,0
648,1.3328,12.437,0.13895,0,0,0,0
651,1.3501,12.44,0.14238,0,0,0,0
654,1.3687,12.448,0.14549,0,0,0,0
657,1.3864,12.446,0.14922,0,0,0,0
660,1.4048,12.447,0.15276,0,0,0,0
663,1.423,12.447,0.1565,0,0,0,0
666,1.4413,12.446,0.16045,0,0,0,0
669,1.4605,12.446,0.1641,0,0,0,0
672,1.4789,12.444,0.16843,0,0,0,0
675,1.4986,12.442,0.17253,0,0,0,0
678,1.5172,12.44,0.17721,0,0,0,0
681,1.5367,12.436,0.18202,0,0,0,0
684,1.5564,12.43,0.18665,0,0,0,0
687,1.5755,12.423,0.19155,0,0,0,0
690,1.5957,12.414,0.19678,0,0,0,0
693,1.6148,12.407,0.20249,0,0,0,0
696,1.6354,12.396,0.20805,0,0,0,0
699,1.6553,12.384,0.21402,0,0,0,0
702,1.6754,12.373,0.2203,0,0,0,0
705,1.6963,12.358,0.22703,0,0,0,0
708,1.7166,12.342,0.23305,0,0,0,0
711,1.738,12.326,0.23986,0,0,0,0
714,1.7587,12.305,0.24651,0,0,0,0
717,1.7792,12.284,0.25412,0,0,0,0
720,1.8011,12.26,0.26191,0,0,0,0
723,1.8217,12.237,0.26958,0,0,0,0
726,1.8436,12.208,0.27801,0,0,0,0
729,1.8649,12.181,0.2862,0,0,0,0
732,1.8858,12.149,0.29523,0,0,0,0
735,1.9093,12.116,0.30455,0,0,0,0
738,1.9306,12.079,0.31332,0,0,0,0
741,1.953,12.037,0.32252,0,0,0,0
744,1.9761,11.994,0.33221,0,0,0,0
747,1.9987,11.941,0.34235,0,0,0,0
750,2.022,11.885,0.353,0,0,0,0
752,2.0386,11.833,0.36137,0,0,0,0