Folder: ethz/polyN_optimization/DP600_results/DATA (part 2)

File: CH_45_3.csv
Time[s],Displacement[mm],Force[kN],AxStrain_1,AxStrain_2,Thickness[mm],OuterWidth[mm],Diameter[mm]
0.6,0,-0.019569,0,0,1.5223,20,4.9589
4.11,0.000608,0.11972,0.00012999,-0.00020902,0,0,0
7.61,0.000709,0.27485,0.00015199,-0.00033906,0,0,0
11.11,0.000926,0.40086,-0.00013701,2.8e-05,0,0,0
14.61,0.001513,0.52942,0.00016899,3.9999e-05,0,0,0
18.11,0.001672,0.66329,0.00015599,-0.00022202,0,0,0
21.61,0.001669,0.80185,-0.00012201,-3e-06,0,0,0
25.11,0.002595,0.94186,0.0004439,-0.00011601,0,0,0
28.61,0.002731,1.0849,0.00059582,-0.00013901,0,0,0
32.1,0.002986,1.2301,6.5998e-05,-0.00021502,0,0,0
35.6,0.004039,1.372,0.00067177,0.00011299,0,0,0
39.1,0.003847,1.5137,0.00076471,-0.00013201,0,0,0
42.6,0.004291,1.6546,0.00018898,1.7e-05,0,0,0
46.1,0.005638,1.7984,0.00065878,0.00022198,0,0,0
49.6,0.005012,1.9391,0.00080368,-0.00010601,0,0,0
53.1,0.005767,2.0779,0.00040092,0.00010599,0,0,0
56.6,0.00688,2.2183,0.0010355,0.00038693,0,0,0
60.1,0.00634,2.3563,0.00081367,-0.00029504,0,0,0
63.6,0.006983,2.4964,0.00068876,0.00012599,0,0,0
67.11,0.008274,2.6367,0.0011843,0.00035794,0,0,0
70.61,0.007711,2.7783,0.00083065,-5.6002e-05,0,0,0
74.11,0.008615,2.9189,0.00061881,0.00036693,0,0,0
77.61,0.009678,3.0587,0.0013431,0.00043391,0,0,0
81.11,0.009013,3.1969,0.00096953,0.00033095,0,0,0
84.61,0.010659,3.3381,0.00061581,0.00059282,0,0,0
88.11,0.011053,3.475,0.0012802,0.0006288,0,0,0
91.61,0.010408,3.6137,0.00088061,0.00027796,0,0,0
95.11,0.012355,3.7507,0.00088661,0.00066878,0,0,0
98.6,0.012232,3.8877,0.0015418,0.00083765,0,0,0
102.11,0.012041,4.0259,0.0012342,0.00069176,0,0,0
105.61,0.014063,4.1634,0.0013501,0.00098252,0,0,0
109.11,0.013776,4.2999,0.0019182,0.00076071,0,0,0
112.6,0.013809,4.438,0.0012572,0.0010924,0,0,0
116.1,0.01606,4.5743,0.0016207,0.0016876,0,0,0
119.61,0.015266,4.7124,0.0022485,0.0011254,0,0,0
123.1,0.015564,4.846,0.0015548,0.0012243,0,0,0
126.6,0.017915,4.9794,0.0017864,0.0016866,0,0,0
130.1,0.01712,5.1127,0.0021826,0.0011583,0,0,0
133.6,0.017816,5.247,0.0017535,0.0011913,0,0,0
137.1,0.019935,5.3816,0.0022814,0.0015548,0,0,0
140.6,0.019042,5.5147,0.0025787,0.001423,0,0,0
144.1,0.020169,5.6471,0.0020509,0.0015548,0,0,0
147.6,0.021858,5.7834,0.0026784,0.0022485,0,0,0
151.1,0.021031,5.9146,0.0025787,0.0015877,0,0,0
154.6,0.02262,6.0481,0.0022824,0.001985,0,0,0
158.1,0.024144,6.1803,0.0031401,0.0025128,0,0,0
161.6,0.023383,6.3141,0.0029756,0.0019182,0,0,0
165.1,0.025337,6.4479,0.0027442,0.0026784,0,0,0
168.6,0.026463,6.5784,0.0038655,0.0027771,0,0,0
172.1,0.02643,6.7086,0.0035357,0.0023482,0,0,0
175.6,0.028483,6.8394,0.0032726,0.0033384,0,0,0
179.1,0.029179,6.9699,0.00469,0.0036683,0,0,0
182.6,0.029842,7.1019,0.004229,0.0032726,0,0,0
186.1,0.031961,7.23,0.004229,0.0042948,0,0,0
189.6,0.032956,7.358,0.0056122,0.0042958,0,0,0
193.1,0.03491,7.4831,0.0050204,0.0039333,0,0,0
196.6,0.035871,7.6103,0.0054153,0.0054153,0,0,0
200.1,0.037792,7.7346,0.0066667,0.0047567,0,0,0
203.6,0.040342,7.8581,0.0059095,0.0048233,0,0,0
207.1,0.041105,7.9796,0.0069955,0.0062723,0,0,0
210.6,0.044218,8.1011,0.0084076,0.0058121,0,0,0
214.1,0.046934,8.221,0.0074224,0.0062405,0,0,0
217.6,0.048425,8.3393,0.0092937,0.0081467,0,0,0
221.1,0.052829,8.4553,0.010212,0.0074571,0,0,0
224.6,0.055677,8.5729,0.0095889,0.0081804,0,0,0
228.1,0.058262,8.6856,0.012176,0.010116,0,0,0
231.6,0.062932,8.7991,0.012569,0.0095928,0,0,0
235.1,0.066841,8.9079,0.012765,0.011035,0,0,0
238.6,0.07128,9.0139,0.015246,0.012736,0,0,0
242.1,0.074726,9.1184,0.015737,0.012477,0,0,0
245.6,0.080158,9.2229,0.016226,0.014338,0,0,0
249.1,0.085656,9.3243,0.018731,0.01574,0,0,0
252.6,0.089465,9.4234,0.019349,0.016067,0,0,0
256.1,0.096155,9.52,0.02003,0.018052,0,0,0
259.6,0.10149,9.616,0.022266,0.01932,0,0,0
263.1,0.10841,9.7109,0.023109,0.020294,0,0,0
266.6,0.11348,9.8043,0.024498,0.022142,0,0,0
270.1,0.12023,9.8944,0.026081,0.023112,0,0,0
273.6,0.12755,9.9846,0.0275,0.024439,0,0,0
277.1,0.13425,10.073,0.02895,0.026215,0,0,0
280.6,0.14103,10.158,0.030654,0.027567,0,0,0
284.1,0.14766,10.241,0.032806,0.029049,0,0,0
287.6,0.1566,10.324,0.033673,0.03117,0,0,0
291.1,0.16339,10.406,0.035591,0.032579,0,0,0
294.6,0.17154,10.487,0.037314,0.03415,0,0,0
298.1,0.1781,10.564,0.038814,0.036387,0,0,0
301.6,0.1878,10.639,0.040943,0.037824,0,0,0
305.1,0.19516,10.713,0.042469,0.03948,0,0,0
308.6,0.20367,10.788,0.044056,0.042213,0,0,0
312.1,0.21093,10.861,0.045956,0.043007,0,0,0
315.6,0.22053,10.931,0.047348,0.045478,0,0,0
319.1,0.22914,11.001,0.049212,0.047502,0,0,0
322.6,0.23796,11.068,0.050976,0.048859,0,0,0
326.1,0.24601,11.136,0.052802,0.051315,0,0,0
329.6,0.25518,11.202,0.054935,0.052762,0,0,0
333.1,0.26469,11.268,0.056688,0.054927,0,0,0
336.6,0.27433,11.333,0.058907,0.056712,0,0,0
340.1,0.28275,11.395,0.061057,0.058371,0,0,0
343.6,0.29202,11.458,0.062803,0.060865,0,0,0
347.1,0.3016,11.518,0.064635,0.062578,0,0,0
350.6,0.31177,11.577,0.066563,0.064508,0,0,0
354.1,0.32121,11.637,0.068484,0.066769,0,0,0
357.6,0.33072,11.694,0.070279,0.068843,0,0,0
361.1,0.34056,11.75,0.072779,0.07085,0,0,0
364.6,0.35053,11.806,0.074171,0.072699,0,0,0
368.1,0.36093,11.86,0.076293,0.075221,0,0,0
371.6,0.37137,11.915,0.078508,0.077002,0,0,0
375.1,0.38078,11.967,0.080009,0.079449,0,0,0
378.6,0.39118,12.02,0.081723,0.081984,0,0,0
382.1,0.40165,12.07,0.084072,0.083969,0,0,0
385.6,0.41268,12.12,0.085776,0.08655,0,0,0
389.1,0.42322,12.17,0.08775,0.088308,0,0,0
392.6,0.43356,12.219,0.089661,0.090881,0,0,0
396.1,0.4433,12.266,0.091482,0.092696,0,0,0
399.6,0.45459,12.314,0.092607,0.095018,0,0,0
403.1,0.46533,12.361,0.094845,0.096913,0,0,0
406.6,0.47755,12.406,0.096875,0.098897,0,0,0
410.1,0.48759,12.451,0.098441,0.10183,0,0,0
413.6,0.49908,12.497,0.10123,0.1032,0,0,0
417.1,0.50932,12.54,0.1036,0.10574,0,0,0
420.6,0.52191,12.583,0.105,0.1077,0,0,0
424.1,0.53264,12.626,0.10765,0.10972,0,0,0
427.6,0.54506,12.668,0.11,0.11251,0,0,0
431.1,0.5554,12.709,0.11275,0.11455,0,0,0
434.6,0.56716,12.749,0.11499,0.1172,0,0,0
438.1,0.57806,12.789,0.11735,0.11967,0,0,0
441.6,0.59074,12.828,0.12,0.12202,0,0,0
445.1,0.60217,12.867,0.12267,0.12431,0,0,0
448.6,0.61496,12.907,0.12478,0.12731,0,0,0
452.1,0.62579,12.944,0.12738,0.13005,0,0,0
455.6,0.63815,12.982,0.13013,0.13267,0,0,0
459.1,0.65024,13.018,0.13274,0.13547,0,0,0
462.6,0.66266,13.054,0.13517,0.1381,0,0,0
466.1,0.67541,13.09,0.13755,0.14066,0,0,0
469.6,0.6874,13.126,0.13992,0.14388,0,0,0
473.1,0.70015,13.161,0.14322,0.14717,0,0,0
476.6,0.71161,13.195,0.14466,0.14966,0,0,0
480.1,0.72493,13.229,0.14784,0.15296,0,0,0
483.6,0.73742,13.263,0.15081,0.1561,0,0,0
487.1,0.75103,13.296,0.1532,0.1587,0,0,0
490.6,0.76352,13.329,0.15691,0.16217,0,0,0
494.1,0.7768,13.361,0.15981,0.16509,0,0,0
497.6,0.78912,13.393,0.16317,0.16859,0,0,0
501.1,0.8026,13.424,0.16594,0.17083,0,0,0
504.6,0.81585,13.455,0.16941,0.17439,0,0,0
508.1,0.8292,13.485,0.17276,0.17725,0,0,0
511.6,0.8433,13.516,0.17583,0.18049,0,0,0
515.1,0.85606,13.546,0.17842,0.1832,0,0,0
518.6,0.87036,13.575,0.18128,0.186,0,0,0
522.1,0.88291,13.604,0.18446,0.18957,0,0,0
525.6,0.89722,13.633,0.18711,0.19291,0,0,0
529.1,0.9107,13.661,0.19059,0.19648,0,0,0
532.6,0.92521,13.69,0.19419,0.20082,0,0,0
536.1,0.93958,13.717,0.19774,0.20385,0,0,0
539.6,0.95359,13.744,0.20042,0.2073,0,0,0
543.1,0.96826,13.771,0.20394,0.21063,0,0,0
546.6,0.98177,13.796,0.20827,0.21603,0,0,0
550.1,0.99671,13.822,0.21167,0.21776,0,0,0
553.6,1.0107,13.847,0.21475,0.22212,0,0,0
557.1,1.0261,13.872,0.21919,0.22511,0,0,0
560.6,1.0408,13.896,0.22233,0.2293,0,0,0
564.1,1.0559,13.92,0.2268,0.23423,0,0,0
567.6,1.071,13.944,0.23059,0.23682,0,0,0
571.1,1.0852,13.966,0.23483,0.24089,0,0,0
574.6,1.1007,13.99,0.23852,0.24496,0,0,0
578.1,1.1152,14.012,0.24272,0.24892,0,0,0
581.6,1.1309,14.032,0.24671,0.25304,0,0,0
585.1,1.1466,14.054,0.24996,0.25735,0,0,0
588.6,1.1622,14.075,0.25613,0.26144,0,0,0
592.1,1.1783,14.095,0.25992,0.26535,0,0,0
595.6,1.1936,14.116,0.26373,0.27122,0,0,0
599.1,1.2098,14.136,0.26802,0.27596,0,0,0
602.6,1.2258,14.156,0.27388,0.28007,0,0,0
606.1,1.2417,14.174,0.27794,0.28622,0,0,0
609.6,1.2586,14.192,0.28309,0.29025,0,0,0
613.1,1.2747,14.208,0.28717,0.29693,0,0,0
616.6,1.2917,14.226,0.29346,0.3027,0,0,0
620.1,1.3086,14.244,0.29996,0.30818,0,0,0
623.6,1.3257,14.258,-Inf,0.31389,0,0,0
627.1,1.3433,14.274,-Inf,0.31979,0,0,0
630.6,1.36,14.287,-Inf,0.3254,0,0,0
634.1,1.3776,14.302,-Inf,0.33231,0,0,0
637.6,1.3953,14.315,-Inf,0.33856,0,0,0
641.1,1.4125,14.328,-Inf,0.34498,0,0,0
644.6,1.4309,14.34,-Inf,-Inf,0,0,0
648.1,1.4488,14.352,-Inf,-Inf,0,0,0
651.6,1.4672,14.362,-Inf,-Inf,0,0,0
655.1,1.4867,14.37,-Inf,-Inf,0,0,0
658.6,1.5051,14.378,-Inf,-Inf,0,0,0
662.1,1.5248,14.385,-Inf,-Inf,0,0,0
665.6,1.5446,14.391,-Inf,-Inf,0,0,0
669.1,1.564,14.395,-Inf,-Inf,0,0,0
672.6,1.5848,14.397,-Inf,-Inf,0,0,0
676.1,1.6058,14.397,-Inf,-Inf,0,0,0
679.6,1.6266,14.395,-Inf,-Inf,0,0,0
683.1,1.649,14.386,-Inf,-Inf,0,0,0
686.6,1.672,14.368,-Inf,-Inf,0,0,0
689.6,1.6987,14.313,-Inf,-Inf,0,0,0

File: CH_90_1.csv
Time[s],Displacement[mm],Force[kN],AxStrain_1,AxStrain_2,Thickness[mm],OuterWidth[mm],Diameter[mm]
0.59,0,-0.018201,0,0,1.5207,20,4.8394
4.09,0.000203,0.10244,-4.4001e-05,2.9e-05,0,0,0
7.59,0.000365,0.25885,-0.00015901,2.8e-05,0,0,0
11.09,0.000599,0.39043,-0.00020402,7.9997e-05,0,0,0
14.59,0.001296,0.51928,-1e-05,0.00019798,0,0,0
18.09,0.001433,0.64915,0.00017199,0.00028096,0,0,0
21.59,0.001721,0.78871,-0.00010901,0.00018198,0,0,0
25.09,0.002506,0.92986,0.00022797,0.00026496,0,0,0
28.59,0.002748,1.0707,-3e-06,0.00052586,0,0,0
32.09,0.00293,1.2163,0.00013299,0.00043391,0,0,0
35.59,0.003996,1.3616,0.00028496,0.00028796,0,0,0
39.09,0.004251,1.5094,0.00022797,0.00071774,0,0,0
42.59,0.004261,1.652,0.00034794,0.00049988,0,0,0
46.09,0.005638,1.7933,0.00039692,0.00053286,0,0,0
49.59,0.00574,1.9346,0.00040092,0.00065878,0,0,0
53.09,0.005671,2.0774,0.00014599,0.00066178,0,0,0
56.59,0.007154,2.2196,0.00049288,0.00064579,0,0,0
60.09,0.007147,2.3594,0.00034094,0.00075771,0,0,0
63.59,0.007171,2.4964,0.00033794,0.0006318,0,0,0
67.09,0.008541,2.6363,0.00050987,0.00071175,0,0,0
70.59,0.008564,2.7746,0.0006358,0.00074472,0,0,0
74.08,0.008528,2.9157,0.0004399,0.00069876,0,0,0
77.58,0.010322,3.055,0.00060282,0.00065878,0,0,0
81.08,0.009766,3.1941,0.00070175,0.00075072,0,0,0
84.59,0.010008,3.3317,0.00049988,0.0006358,0,0,0
88.09,0.011931,3.4693,0.00057883,0.00091358,0,0,0
91.59,0.011213,3.6047,0.00057883,0.0009995,0,0,0
95.09,0.011726,3.7403,0.00069876,0.0010355,0,0,0
98.58,0.013543,3.8777,0.00081767,0.0011284,0,0,0
102.08,0.012745,4.0151,0.00084065,0.0010624,0,0,0
105.59,0.013533,4.1501,0.00088361,0.0012542,0,0,0
109.08,0.015291,4.2827,0.0014559,0.0012672,0,0,0
112.58,0.014434,4.4153,0.00082766,0.0013231,0,0,0
116.08,0.015526,4.5486,0.00079468,0.0012572,0,0,0
119.58,0.017049,4.6841,0.0012902,0.0016866,0,0,0
123.08,0.015957,4.8163,0.00099251,0.0015877,0,0,0
126.58,0.017744,4.9487,0.00092657,0.0015218,0,0,0
130.09,0.019002,5.0797,0.0016207,0.0019511,0,0,0
133.59,0.018208,5.2106,0.0012243,0.0017864,0,0,0
137.09,0.019962,5.3407,0.0012243,0.0017195,0,0,0
140.59,0.020889,5.4743,0.0018523,0.0019182,0,0,0
144.09,0.020095,5.6079,0.0014889,0.001984,0,0,0
147.59,0.021982,5.7421,0.0017535,0.001984,0,0,0
151.09,0.023008,5.8743,0.0021826,0.0023812,0,0,0
154.59,0.022776,6.0044,0.0017864,0.002018,0,0,0
158.09,0.024796,6.1341,0.0019182,0.0023143,0,0,0
161.59,0.025557,6.2671,0.002447,0.00281,0,0,0
165.09,0.025822,6.4006,0.0022485,0.0025787,0,0,0
168.59,0.027874,6.5317,0.0026116,0.003173,0,0,0
172.08,0.028834,6.6594,0.0026784,0.0033384,0,0,0
175.59,0.029662,6.7886,0.0025787,0.0031401,0,0,0
179.09,0.031152,6.9169,0.0031072,0.0037011,0,0,0
182.59,0.032244,7.0459,0.003173,0.0039323,0,0,0
186.08,0.033569,7.1719,0.0030743,0.0036015,0,0,0
189.59,0.03476,7.2981,0.0038984,0.0044262,0,0,0
193.09,0.036846,7.4237,0.0038326,0.0048214,0,0,0
196.59,0.039031,7.5476,0.0037669,0.0047557,0,0,0
200.08,0.039925,7.6691,0.0049209,0.0058757,0,0,0
203.58,0.04254,7.7903,0.004888,0.0060397,0,0,0
207.08,0.045155,7.9101,0.0049209,0.0059085,0,0,0
210.59,0.04595,8.0324,0.0062047,0.0073886,0,0,0
214.08,0.050022,8.15,0.0059413,0.007059,0,0,0
217.58,0.052505,8.2663,0.006468,0.0071256,0,0,0
221.08,0.054557,8.3789,0.0079791,0.0089647,0,0,0
224.59,0.058993,8.4929,0.0073559,0.0088983,0,0,0
228.08,0.061774,8.6071,0.0079801,0.0093581,0,0,0
231.58,0.065615,8.7179,0.0096859,0.011258,0,0,0
235.08,0.068958,8.8261,0.008931,0.010964,0,0,0
238.58,0.073229,8.9329,0.010211,0.011586,0,0,0
242.08,0.078393,9.0361,0.011586,0.013613,0,0,0
245.58,0.081571,9.1419,0.011094,0.01358,0,0,0
249.08,0.087531,9.2436,0.012502,0.014461,0,0,0
252.58,0.092464,9.3457,0.014037,0.01658,0,0,0
256.08,0.09743,9.4453,0.013711,0.016482,0,0,0
259.58,0.10302,9.5454,0.015439,0.017817,0,0,0
263.08,0.10882,9.6459,0.016938,0.019766,0,0,0
266.58,0.1163,9.7431,0.017069,0.020156,0,0,0
270.08,0.12173,9.8364,0.018856,0.021291,0,0,0
273.58,0.12858,9.9284,0.020156,0.023362,0,0,0
277.08,0.13514,10.019,0.020804,0.023976,0,0,0
280.58,0.14278,10.111,0.022262,0.025269,0,0,0
284.08,0.15023,10.197,0.023782,0.027236,0,0,0
287.58,0.15633,10.282,0.024945,0.028266,0,0,0
291.08,0.16437,10.364,0.026107,0.029553,0,0,0
294.58,0.17159,10.446,0.027428,0.03119,0,0,0
298.08,0.18072,10.526,0.028684,0.032825,0,0,0
301.58,0.18698,10.606,0.030163,0.034043,0,0,0
305.08,0.19599,10.683,0.031446,0.035546,0,0,0
308.58,0.20373,10.759,0.032698,0.036918,0,0,0
312.08,0.2133,10.834,0.03433,0.038545,0,0,0
315.58,0.22102,10.906,0.03564,0.040009,0,0,0
319.08,0.22916,10.976,0.036726,0.041789,0,0,0
322.58,0.23747,11.047,0.038607,0.043026,0,0,0
326.08,0.24677,11.115,0.040008,0.044833,0,0,0
329.58,0.25581,11.184,0.041184,0.046256,0,0,0
333.08,0.26442,11.249,0.042962,0.047867,0,0,0
336.58,0.27296,11.315,0.044388,0.049853,0,0,0
340.08,0.2819,11.38,0.045812,0.050986,0,0,0
343.58,0.29206,11.443,0.047802,0.052998,0,0,0
347.08,0.3013,11.507,0.048969,0.054755,0,0,0
350.58,0.3107,11.568,0.050797,0.056571,0,0,0
354.08,0.31974,11.626,0.052683,0.058227,0,0,0
357.58,0.33004,11.683,0.054409,0.060257,0,0,0
361.08,0.33951,11.74,0.056225,0.062032,0,0,0
364.58,0.34967,11.796,0.057726,0.063772,0,0,0
368.08,0.35828,11.85,0.059661,0.06576,0,0,0
371.58,0.36864,11.905,0.061376,0.06771,0,0,0
375.08,0.37808,11.958,0.062932,0.069317,0,0,0
378.58,0.38907,12.01,0.064826,0.071324,0,0,0
382.08,0.3986,12.062,0.066717,0.073264,0,0,0
385.58,0.40847,12.112,0.068697,0.075108,0,0,0
389.08,0.41781,12.162,0.070766,0.076827,0,0,0
392.58,0.42897,12.212,0.072492,0.07897,0,0,0
396.08,0.4391,12.26,0.074552,0.081111,0,0,0
399.58,0.45025,12.309,0.076455,0.082788,0,0,0
403.08,0.45979,12.356,0.078538,0.084828,0,0,0
406.58,0.47048,12.404,0.080251,0.086773,0,0,0
410.08,0.48108,12.45,0.081991,0.088532,0,0,0
413.58,0.4927,12.496,0.084246,0.09056,0,0,0
417.08,0.50395,12.541,0.086131,0.092585,0,0,0
420.58,0.51511,12.587,0.088406,0.094725,0,0,0
424.08,0.52547,12.63,0.090767,0.096951,0,0,0
427.58,0.53646,12.673,0.092972,0.098812,0,0,0
431.08,0.54819,12.715,0.095472,0.10085,0,0,0
434.58,0.55981,12.758,0.097577,0.10345,0,0,0
438.08,0.57176,12.799,0.099916,0.10574,0,0,0
441.58,0.58229,12.84,0.10198,0.10807,0,0,0
445.08,0.59424,12.88,0.10419,0.11047,0,0,0
448.58,0.60493,12.918,0.10652,0.11284,0,0,0
452.08,0.61768,12.958,0.1088,0.1155,0,0,0
455.58,0.62903,12.996,0.11144,0.11788,0,0,0
459.08,0.64191,13.035,0.11399,0.12024,0,0,0
462.58,0.65247,13.073,0.11685,0.12317,0,0,0
466.08,0.66512,13.109,0.11888,0.12559,0,0,0
469.58,0.67624,13.146,0.12164,0.12831,0,0,0
473.08,0.68939,13.182,0.12389,0.13115,0,0,0
476.58,0.70117,13.218,0.12646,0.13342,0,0,0
480.08,0.71395,13.252,0.12949,0.13614,0,0,0
483.58,0.72561,13.288,0.13121,0.13882,0,0,0
487.08,0.73812,13.323,0.13391,0.1415,0,0,0
490.58,0.75044,13.356,0.13709,0.14416,0,0,0
494.08,0.76325,13.389,0.13902,0.14657,0,0,0
497.58,0.77653,13.422,0.1423,0.1496,0,0,0
501.08,0.78894,13.455,0.14473,0.15213,0,0,0
504.58,0.80229,13.487,0.14739,0.1548,0,0,0
508.08,0.81391,13.517,0.15067,0.15769,0,0,0
511.58,0.82718,13.549,0.15323,0.16085,0,0,0
515.08,0.83973,13.58,0.15601,0.16353,0,0,0
518.58,0.8534,13.61,0.15904,0.16647,0,0,0
522.08,0.86631,13.64,0.16197,0.16936,0,0,0
525.58,0.88015,13.669,0.16453,0.1722,0,0,0
529.08,0.89257,13.698,0.16781,0.17529,0,0,0
532.58,0.90598,13.728,0.17105,0.17887,0,0,0
536.08,0.91982,13.757,0.17448,0.18194,0,0,0
539.58,0.93336,13.786,0.17734,0.18549,0,0,0
543.08,0.94782,13.813,0.18002,0.18879,0,0,0
546.58,0.96103,13.841,0.18452,0.19188,0,0,0
550.08,0.9756,13.867,0.18749,0.19554,0,0,0
553.58,0.98878,13.894,0.19031,0.19915,0,0,0
557.08,1.003,13.919,0.19433,0.20248,0,0,0
560.58,1.0167,13.946,0.19743,0.20559,0,0,0
564.08,1.0308,13.971,0.20066,0.20957,0,0,0
567.58,1.0456,13.997,0.20431,0.21295,0,0,0
571.08,1.0599,14.021,0.20757,0.21596,0,0,0
574.58,1.075,14.045,0.21168,0.21985,0,0,0
578.08,1.0887,14.07,0.21481,0.22346,0,0,0
581.58,1.1036,14.094,0.21899,0.22763,0,0,0
585.08,1.1178,14.115,0.22324,0.23042,0,0,0
588.58,1.1326,14.139,0.22702,0.23515,0,0,0
592.08,1.1476,14.162,0.23131,0.23904,0,0,0
595.58,1.1621,14.183,0.23527,0.24348,0,0,0
599.08,1.1779,14.205,0.23971,0.24771,0,0,0
602.58,1.1927,14.227,0.24467,0.25157,0,0,0
606.08,1.2088,14.249,0.24759,0.25558,0,0,0
609.58,1.2241,14.268,0.25216,0.25996,0,0,0
613.08,1.2393,14.289,0.25624,0.26363,0,0,0
616.58,1.2551,14.309,0.26122,0.26827,0,0,0
620.08,1.2704,14.327,0.26585,0.27259,0,0,0
623.58,1.287,14.347,0.27028,0.27647,0,0,0
627.08,1.3026,14.364,0.27495,0.28148,0,0,0
630.58,1.3189,14.383,0.27981,0.28612,0,0,0
634.08,1.3351,14.4,0.28545,0.29107,0,0,0
637.58,1.351,14.417,0.29064,0.29584,0,0,0
641.08,1.3674,14.433,0.29558,0.30019,0,0,0
644.58,1.3835,14.449,0.30157,0.3053,0,0,0
648.08,1.4004,14.466,0.30724,0.31055,0,0,0
651.58,1.417,14.481,0.31246,0.31558,0,0,0
655.08,1.4339,14.495,0.31818,0.32112,0,0,0
658.58,1.4516,14.51,0.32421,0.32641,0,0,0
662.08,1.4685,14.523,0.33034,0.33222,0,0,0
665.58,1.4861,14.536,0.33682,0.33833,0,0,0
669.08,1.5038,14.548,0.34363,0.3445,0,0,0
672.58,1.5211,14.56,0.34934,0.34974,0,0,0
676.08,1.5396,14.571,0.35586,0.35569,0,0,0
679.58,1.5574,14.581,0.36109,0.36279,0,0,0
683.08,1.5757,14.591,0.36922,0.36922,0,0,0
686.58,1.5948,14.598,0.37559,0.37608,0,0,0
690.08,1.6132,14.604,0.38399,0.38321,0,0,0
693.58,1.6326,14.611,0.39232,0.38926,0,0,0
697.08,1.6525,14.614,0.39967,0.39739,0,0,0
700.58,1.6719,14.616,-Inf,0.40639,0,0,0
704.08,1.6928,14.614,-Inf,0.41351,0,0,0
707.58,1.7125,14.611,-Inf,0.42301,0,0,0
711.08,1.735,14.599,-Inf,0.43225,0,0,0
714.58,1.758,14.576,-Inf,0.44183,0,0,0
718.08,1.7833,14.539,-Inf,0.45303,0,0,0
721.58,1.8125,14.444,-Inf,-Inf,0,0,0
723.58,1.8308,14.359,-Inf,-Inf,0,0,0