Folder: ethz/polyN_optimization/DP600_results/DATA (part 8)

File: NT20_45_3.csv
Time[s],Displacement[mm],Force[kN],AxStrain_1,AxStrain_2,Thickness[mm],OuterWidth[mm],InnerWidth[mm]
0.6,0,-0.018551,0,0,1.526,20,10
3.6,0.000397,0.087432,0.00010899,0,0,0,0
6.6,0.000807,0.23657,9.6995e-05,0,0,0,0
9.6,0.001172,0.33915,8e-06,0,0,0,0
12.6,0.001709,0.45115,-0.00019202,0,0,0,0
15.6,0.001943,0.56029,-2.6e-05,0,0,0,0
18.6,0.002238,0.67415,9.7995e-05,0,0,0,0
21.6,0.002878,0.79543,8.6996e-05,0,0,0,0
24.6,0.003743,0.91615,-5.8002e-05,0,0,0,0
27.6,0.003926,1.0397,0.00022897,0,0,0,0
30.6,0.004043,1.1644,0.00035394,0,0,0,0
33.6,0.004866,1.2869,0.00022597,0,0,0,0
36.6,0.005815,1.4107,0.00032395,0,0,0,0
39.6,0.005579,1.5324,0.0004359,0,0,0,0
42.6,0.006087,1.6543,0.00040792,0,0,0,0
45.6,0.007564,1.7776,0.00040892,0,0,0,0
48.6,0.007523,1.9001,0.00066178,0,0,0,0
51.6,0.00722,2.0203,0.00047289,0,0,0,0
54.6,0.008917,2.1426,0.00026397,0,0,0,0
57.6,0.010007,2.2641,0.00053186,0,0,0,0
60.6,0.009235,2.3846,0.00051187,0,0,0,0
63.6,0.01005,2.5066,0.00043091,0,0,0,0
66.6,0.012108,2.6284,0.00051687,0,0,0,0
69.6,0.011644,2.7476,0.00066278,0,0,0,0
72.6,0.011388,2.8699,0.00048288,0,0,0,0
75.6,0.013734,2.9904,0.00037893,0,0,0,0
78.6,0.014315,3.1081,0.00047889,0,0,0,0
81.6,0.013441,3.2296,0.00048788,0,0,0,0
84.6,0.014454,3.3487,0.00036993,0,0,0,0
87.6,0.016634,3.4659,0.00060881,0,0,0,0
90.6,0.016184,3.5859,0.00064979,0,0,0,0
93.6,0.016094,3.7047,0.00065978,0,0,0,0
96.6,0.018857,3.8201,0.00059682,0,0,0,0
99.6,0.019447,3.9391,0.00088561,0,0,0,0
102.6,0.018504,4.0564,0.00075272,0,0,0,0
105.6,0.020676,4.1726,0.00084964,0,0,0,0
108.6,0.022375,4.2909,0.0010355,0,0,0,0
111.6,0.022081,4.4084,0.00096953,0,0,0,0
114.6,0.022593,4.5219,0.0011114,0,0,0,0
117.6,0.025129,4.6379,0.0012083,0,0,0,0
120.6,0.026072,4.7514,0.0012532,0,0,0,0
123.6,0.026235,4.8619,0.0011164,0,0,0,0
126.6,0.028245,4.9749,0.0012632,0,0,0,0
129.6,0.030318,5.0879,0.0015428,0,0,0,0
132.6,0.031472,5.1973,0.0015758,0,0,0,0
135.59,0.033506,5.3069,0.0015847,0,0,0,0
138.59,0.035465,5.4147,0.00198,0,0,0,0
141.6,0.037785,5.5206,0.0022455,0,0,0,0
144.59,0.041344,5.6256,0.0023901,0,0,0,0
147.59,0.042954,5.7287,0.0027652,0,0,0,0
150.6,0.045672,5.8301,0.0032238,0,0,0,0
153.6,0.050762,5.9289,0.0032328,0,0,0,0
156.59,0.054446,6.0264,0.0035068,0,0,0,0
159.59,0.057027,6.1221,0.0045685,0,0,0,0
162.59,0.062432,6.2149,0.0044182,0,0,0,0
165.59,0.06754,6.3043,0.0045765,0,0,0,0
168.59,0.073115,6.3921,0.0056172,0,0,0,0
171.59,0.079026,6.4781,0.0064909,0,0,0,0
174.59,0.083736,6.5616,0.0063418,0,0,0,0
177.59,0.091174,6.6441,0.0071414,0,0,0,0
180.59,0.098381,6.7231,0.008474,0,0,0,0
183.59,0.10523,6.801,0.0082915,0,0,0,0
186.59,0.11325,6.8774,0.008593,0,0,0,0
189.59,0.11923,6.9511,0.010173,0,0,0,0
192.59,0.12791,7.0233,0.010739,0,0,0,0
195.59,0.1358,7.0947,0.01016,0,0,0,0
198.59,0.14461,7.1634,0.011769,0,0,0,0
201.59,0.15397,7.2313,0.013011,0,0,0,0
204.59,0.16135,7.298,0.012547,0,0,0,0
207.59,0.17094,7.3629,0.012979,0,0,0,0
210.59,0.17903,7.4256,0.014877,0,0,0,0
213.59,0.18977,7.489,0.015124,0,0,0,0
216.59,0.19921,7.5497,0.01515,0,0,0,0
219.59,0.20964,7.6109,0.016767,0,0,0,0
222.59,0.2197,7.6713,0.017616,0,0,0,0
225.59,0.22903,7.7287,0.017465,0,0,0,0
228.59,0.23985,7.7859,0.018727,0,0,0,0
231.59,0.24952,7.842,0.019874,0,0,0,0
234.59,0.26146,7.8954,0.020054,0,0,0,0
237.59,0.27131,7.9489,0.020831,0,0,0,0
240.59,0.28387,8.001,0.022118,0,0,0,0
243.59,0.29441,8.052,0.022626,0,0,0,0
246.59,0.306,8.1021,0.023116,0,0,0,0
249.59,0.31634,8.1513,0.024509,0,0,0,0
252.59,0.328,8.1994,0.025527,0,0,0,0
255.59,0.33948,8.2474,0.026213,0,0,0,0
258.6,0.35175,8.2943,0.027279,0,0,0,0
261.59,0.36406,8.3401,0.02827,0,0,0,0
264.6,0.37656,8.3859,0.029039,0,0,0,0
267.59,0.38934,8.4297,0.030114,0,0,0,0
270.59,0.40137,8.4739,0.031067,0,0,0,0
273.59,0.41403,8.5161,0.032003,0,0,0,0
276.6,0.42588,8.5576,0.032929,0,0,0,0
279.59,0.43877,8.5986,0.034082,0,0,0,0
282.59,0.45134,8.6391,0.035078,0,0,0,0
285.59,0.4652,8.6783,0.035799,0,0,0,0
288.59,0.47827,8.7173,0.036873,0,0,0,0
291.59,0.4927,8.7551,0.038009,0,0,0,0
294.59,0.50547,8.7923,0.038966,0,0,0,0
297.6,0.51976,8.8296,0.040086,0,0,0,0
300.59,0.53283,8.8649,0.041378,0,0,0,0
303.59,0.5467,8.8996,0.042413,0,0,0,0
306.59,0.55944,8.9353,0.043301,0,0,0,0
309.59,0.57375,8.9689,0.04468,0,0,0,0
312.59,0.58756,9.002,0.045603,0,0,0,0
315.59,0.60199,9.0343,0.046903,0,0,0,0
318.59,0.61637,9.0666,0.04824,0,0,0,0
321.59,0.6309,9.0969,0.049493,0,0,0,0
324.59,0.6456,9.1276,0.050532,0,0,0,0
327.59,0.66005,9.1583,0.051859,0,0,0,0
330.59,0.67506,9.1879,0.053189,0,0,0,0
333.59,0.6896,9.2176,0.05427,0,0,0,0
336.59,0.70502,9.2456,0.055463,0,0,0,0
339.59,0.71856,9.273,0.0571,0,0,0,0
342.59,0.73415,9.3013,0.058198,0,0,0,0
345.59,0.74793,9.3276,0.059456,0,0,0,0
348.59,0.76411,9.3536,0.060825,0,0,0,0
351.59,0.77832,9.3796,0.062097,0,0,0,0
354.59,0.79471,9.4053,0.063464,0,0,0,0
357.59,0.80932,9.4293,0.064948,0,0,0,0
360.59,0.82578,9.454,0.06606,0,0,0,0
363.59,0.84086,9.4776,0.067537,0,0,0,0
366.59,0.85723,9.501,0.068808,0,0,0,0
369.59,0.87217,9.5233,0.070347,0,0,0,0
372.59,0.88811,9.5456,0.071767,0,0,0,0
375.59,0.90407,9.5676,0.07327,0,0,0,0
378.59,0.91936,9.5883,0.074714,0,0,0,0
381.59,0.93594,9.6093,0.076258,0,0,0,0
384.59,0.95082,9.6296,0.077899,0,0,0,0
387.59,0.96742,9.649,0.079103,0,0,0,0
390.59,0.9823,9.6681,0.080749,0,0,0,0
393.59,0.99911,9.6874,0.082435,0,0,0,0
396.59,1.0146,9.7057,0.084005,0,0,0,0
399.59,1.0317,9.7247,0.085712,0,0,0,0
402.59,1.0475,9.7427,0.087163,0,0,0,0
405.59,1.0646,9.7604,0.089072,0,0,0,0
408.59,1.0816,9.7767,0.090801,0,0,0,0
411.59,1.098,9.7944,0.092484,0,0,0,0
414.59,1.1153,9.8104,0.094433,0,0,0,0
417.59,1.1315,9.8253,0.096184,0,0,0,0
420.59,1.1494,9.8417,0.097976,0,0,0,0
423.59,1.1655,9.8563,0.09986,0,0,0,0
426.59,1.1834,9.8703,0.10181,0,0,0,0
429.59,1.1999,9.8846,0.10344,0,0,0,0
432.59,1.2174,9.8983,0.10563,0,0,0,0
435.59,1.2342,9.9123,0.1075,0,0,0,0
438.59,1.2516,9.9253,0.10944,0,0,0,0
441.59,1.2689,9.938,0.11165,0,0,0,0
444.59,1.2858,9.9506,0.11364,0,0,0,0
447.59,1.3043,9.9626,0.11542,0,0,0,0
450.59,1.3208,9.974,0.11751,0,0,0,0
453.59,1.3394,9.9856,0.11991,0,0,0,0
456.59,1.3562,9.9957,0.12191,0,0,0,0
459.59,1.3742,10.006,0.124,0,0,0,0
462.59,1.3921,10.017,0.1266,0,0,0,0
465.59,1.4095,10.026,0.12895,0,0,0,0
468.59,1.428,10.035,0.13086,0,0,0,0
471.59,1.445,10.044,0.13351,0,0,0,0
474.59,1.4639,10.052,0.13586,0,0,0,0
477.59,1.4812,10.06,0.13819,0,0,0,0
480.59,1.5,10.068,0.14068,0,0,0,0
483.59,1.5181,10.076,0.14335,0,0,0,0
486.59,1.5361,10.083,0.14554,0,0,0,0
489.59,1.5552,10.09,0.14831,0,0,0,0
492.59,1.5727,10.097,0.15098,0,0,0,0
495.59,1.5923,10.102,0.15383,0,0,0,0
498.59,1.61,10.107,0.15664,0,0,0,0
501.59,1.6292,10.112,0.15933,0,0,0,0
504.59,1.6474,10.117,0.16222,0,0,0,0
507.59,1.666,10.121,0.16522,0,0,0,0
510.59,1.6854,10.125,0.16756,0,0,0,0
513.59,1.7032,10.129,0.17056,0,0,0,0
516.59,1.723,10.132,0.17364,0,0,0,0
519.59,1.7414,10.135,0.17692,0,0,0,0
522.59,1.7606,10.138,0.17988,0,0,0,0
525.59,1.7803,10.14,0.18342,0,0,0,0
528.59,1.7987,10.142,0.18672,0,0,0,0
531.59,1.8191,10.143,0.19022,0,0,0,0
534.59,1.8377,10.143,0.19339,0,0,0,0
537.59,1.8573,10.144,0.19686,0,0,0,0
540.59,1.8776,10.144,0.20068,0,0,0,0
543.59,1.8964,10.143,0.20456,0,0,0,0
546.59,1.9168,10.142,0.20834,0,0,0,0
549.59,1.9355,10.14,0.21219,0,0,0,0
552.59,1.9558,10.138,0.21638,0,0,0,0
555.59,1.9757,10.136,0.22031,0,0,0,0
558.59,1.9949,10.133,0.22473,0,0,0,0
561.59,2.0159,10.129,0.22891,0,0,0,0
564.59,2.035,10.126,0.23287,0,0,0,0
567.59,2.0554,10.121,0.23734,0,0,0,0
570.59,2.0757,10.116,0.24153,0,0,0,0
573.59,2.0952,10.11,0.24644,0,0,0,0
576.59,2.1162,10.103,0.2515,0,0,0,0
579.59,2.1356,10.097,0.25639,0,0,0,0
582.59,2.1559,10.089,0.26149,0,0,0,0
585.59,2.1768,10.082,0.26662,0,0,0,0
588.59,2.1963,10.073,0.272,0,0,0,0
591.59,2.2176,10.064,0.27755,0,0,0,0
594.59,2.2375,10.054,0.28311,0,0,0,0
597.59,2.2581,10.044,0.28863,0,0,0,0
600.59,2.2798,10.033,0.2945,0,0,0,0
603.59,2.2993,10.02,0.30093,0,0,0,0
606.59,2.3204,10.007,0.30725,0,0,0,0
609.59,2.3413,9.9937,0.31358,0,0,0,0
612.59,2.3612,9.979,0.31969,0,0,0,0
615.59,2.3831,9.9643,0.32663,0,0,0,0
618.59,2.4032,9.949,0.33341,0,0,0,0
621.59,2.4242,9.9313,0.34073,0,0,0,0
624.59,2.4456,9.9136,0.34743,0,0,0,0
627.59,2.4655,9.8943,0.35558,0,0,0,0
630.59,2.4872,9.8743,0.36307,0,0,0,0
633.59,2.5081,9.8536,0.37085,0,0,0,0
636.59,2.5291,9.8313,0.37858,0,0,0,0
639.59,2.5509,9.8076,0.38727,0,0,0,0
642.59,2.5712,9.7836,0.3949,0,0,0,0
645.59,2.5935,9.7573,0.40371,0,0,0,0
648.59,2.6151,9.729,0.41205,0,0,0,0
651.59,2.6358,9.6994,0.42112,0,0,0,0
654.59,2.6584,9.6683,0.42989,0,0,0,0
657.59,2.68,9.6353,0.43871,0,0,0,0
660.59,2.7018,9.6001,0.44757,0,0,0,0
663.59,2.7246,9.5633,0.45681,0,0,0,0
666.59,2.7458,9.5236,0.46629,0,0,0,0
669.59,2.769,9.4821,0.4761,0,0,0,0
672.59,2.7919,9.437,0.48586,0,0,0,0
675.59,2.8137,9.3883,0.4942,0,0,0,0
678.59,2.8373,9.3371,0.50352,0,0,0,0
681.59,2.8609,9.2816,0.51337,0,0,0,0
684.59,2.8833,9.2203,0.52436,0,0,0,0
687.59,2.9075,9.157,0.53454,0,0,0,0
690.59,2.9315,9.0869,0.54547,0,0,0,0
693.59,2.9549,9.0093,0.55675,0,0,0,0
696.59,2.9795,8.9256,0.57037,0,0,0,0
699.59,3.0042,8.8336,-Inf,0,0,0,0
701.59,3.0227,8.761,-Inf,0,0,0,0

File: NT20_90_1.csv
Time[s],Displacement[mm],Force[kN],AxStrain_1,AxStrain_2,Thickness[mm],OuterWidth[mm],InnerWidth[mm]
0.63,0,-0.016168,0,0,1.5223,20,19.943
3.63,0.000476,0.07671,0.00017299,0,0,0,0
6.63,0.000678,0.21243,0.00010199,0,0,0,0
9.63,0.001224,0.32114,5.7998e-05,0,0,0,0
12.63,0.001362,0.43157,5e-06,0,0,0,0
15.63,0.002293,0.54085,0.00030495,0,0,0,0
18.63,0.002472,0.651,-1.3e-05,0,0,0,0
21.63,0.003094,0.76757,0.00012299,0,0,0,0
24.63,0.004132,0.88857,-3e-06,0,0,0,0
27.63,0.004425,1.0087,0.00024497,0,0,0,0
30.63,0.004605,1.1281,0.00022198,0,0,0,0
33.63,0.005451,1.2509,0.00017199,0,0,0,0
36.63,0.006512,1.3717,0.00035394,0,0,0,0
39.63,0.006066,1.4909,0.00030095,0,0,0,0
42.63,0.006461,1.6126,0.00011599,0,0,0,0
45.63,0.008066,1.7324,0.00024797,0,0,0,0
48.63,0.008184,1.8506,0.00041991,0,0,0,0
51.63,0.007999,1.9703,0.00033794,0,0,0,0
54.63,0.009477,2.0904,0.00041092,0,0,0,0
57.63,0.011214,2.2083,0.00056584,0,0,0,0
60.63,0.010222,2.3279,0.00061881,0,0,0,0
63.63,0.010916,2.446,0.00048288,0,0,0,0
66.63,0.01357,2.5649,0.00035394,0,0,0,0
69.63,0.013179,2.6856,0.0006358,0,0,0,0
72.63,0.01245,2.804,0.0004569,0,0,0,0
75.63,0.014593,2.9206,0.0004569,0,0,0,0
78.63,0.015372,3.0403,0.00058883,0,0,0,0
81.63,0.014259,3.1577,0.00067477,0,0,0,0
84.63,0.015625,3.2721,0.00041092,0,0,0,0
87.63,0.017801,3.3886,0.00073173,0,0,0,0
90.63,0.017517,3.5054,0.00087062,0,0,0,0
93.63,0.017183,3.6191,0.00071474,0,0,0,0
96.63,0.0199,3.7351,0.00073473,0,0,0,0
99.63,0.020858,3.8493,0.00087062,0,0,0,0
102.63,0.020102,3.9636,0.00097652,0,0,0,0
105.63,0.021869,4.0786,0.0007747,0,0,0,0
108.63,0.023157,4.1913,0.0010195,0,0,0,0
111.63,0.023306,4.3033,0.0010584,0,0,0,0
114.63,0.024201,4.4169,0.0008936,0,0,0,0
117.63,0.026618,4.5273,0.00099251,0,0,0,0
120.63,0.027612,4.6361,0.0016207,0,0,0,0
123.63,0.027942,4.7461,0.0013231,0,0,0,0
126.63,0.03006,4.8543,0.0012902,0,0,0,0
129.63,0.031485,4.9613,0.0018193,0,0,0,0
132.63,0.032777,5.0709,0.0016536,0,0,0,0
135.63,0.034859,5.178,0.0015218,0,0,0,0
138.63,0.036648,5.2834,0.0019182,0,0,0,0
141.63,0.038865,5.3876,0.0023472,0,0,0,0
144.63,0.042735,5.4924,0.0019511,0,0,0,0
147.63,0.043958,5.5931,0.0023143,0,0,0,0
150.63,0.046109,5.6959,0.0032059,0,0,0,0
153.63,0.051004,5.795,0.0030743,0,0,0,0
156.63,0.054446,5.8906,0.0032387,0,0,0,0
159.63,0.056961,5.9879,0.0042619,0,0,0,0
162.63,0.062453,6.081,0.004459,0,0,0,0
165.63,0.066888,6.172,0.0042948,0,0,0,0
168.63,0.071649,6.2621,0.0049865,0,0,0,0
171.63,0.076881,6.3479,0.0064343,0,0,0,0
174.63,0.080951,6.4321,0.0060069,0,0,0,0
177.63,0.087732,6.5156,0.0062375,0,0,0,0
180.63,0.094415,6.5963,0.0083074,0,0,0,0
183.63,0.10074,6.6736,0.0080455,0,0,0,0
186.63,0.10818,6.7511,0.0079136,0,0,0,0
189.63,0.11377,6.8256,0.0093581,0,0,0,0
192.63,0.12198,6.8983,0.010374,0,0,0,0
195.63,0.13002,6.9706,0.0097186,0,0,0,0
198.63,0.13743,7.0403,0.010734,0,0,0,0
201.63,0.14616,7.1089,0.012371,0,0,0,0
204.63,0.15294,7.1769,0.012469,0,0,0,0
207.63,0.16178,7.2427,0.012305,0,0,0,0
210.63,0.16989,7.3066,0.014037,0,0,0,0
213.63,0.17929,7.3716,0.01482,0,0,0,0
216.63,0.18932,7.434,0.014298,0,0,0,0
219.63,0.19746,7.4949,0.015668,0,0,0,0
222.63,0.2073,7.5566,0.017263,0,0,0,0
225.63,0.21583,7.6153,0.017004,0,0,0,0
228.63,0.22682,7.6726,0.017588,0,0,0,0
231.63,0.23612,7.7293,0.019344,0,0,0,0
234.63,0.24748,7.7847,0.019668,0,0,0,0
237.63,0.25757,7.8383,0.019831,0,0,0,0
240.63,0.26749,7.8919,0.021064,0,0,0,0
243.63,0.27782,7.9444,0.022003,0,0,0,0
246.63,0.28745,7.9953,0.022554,0,0,0,0
249.63,0.29929,8.0463,0.023168,0,0,0,0
252.63,0.30926,8.0957,0.02459,0,0,0,0
255.63,0.32193,8.1446,0.025011,0,0,0,0
258.63,0.33252,8.1926,0.026139,0,0,0,0
261.63,0.34526,8.2399,0.026914,0,0,0,0
264.63,0.35552,8.2856,0.027848,0,0,0,0
267.63,0.36751,8.3316,0.028717,0,0,0,0
270.63,0.37833,8.376,0.029745,0,0,0,0
273.63,0.39121,8.4193,0.030613,0,0,0,0
276.63,0.40293,8.4623,0.031382,0,0,0,0
279.63,0.41604,8.5047,0.032441,0,0,0,0
282.63,0.42835,8.5456,0.033562,0,0,0,0
285.63,0.44146,8.5866,0.034298,0,0,0,0
288.63,0.45391,8.6259,0.035545,0,0,0,0
291.63,0.46681,8.6653,0.036471,0,0,0,0
294.63,0.4788,8.7043,0.037301,0,0,0,0
297.63,0.49197,8.7419,0.03813,0,0,0,0
300.63,0.50498,8.7783,0.039594,0,0,0,0
303.63,0.51851,8.8149,0.040389,0,0,0,0
306.63,0.53182,8.8499,0.041502,0,0,0,0
309.63,0.54568,8.8849,0.04258,0,0,0,0
312.63,0.55905,8.9187,0.043944,0,0,0,0
315.63,0.57315,8.9527,0.045116,0,0,0,0
318.63,0.58639,8.9851,0.046128,0,0,0,0
321.63,0.60002,9.0177,0.047423,0,0,0,0
324.63,0.61343,9.0497,0.048496,0,0,0,0
327.63,0.62762,9.0811,0.049631,0,0,0,0
330.63,0.6409,9.1117,0.050827,0,0,0,0
333.63,0.65582,9.1427,0.05221,0,0,0,0
336.63,0.66969,9.1721,0.053341,0,0,0,0
339.63,0.68532,9.2017,0.054626,0,0,0,0
342.63,0.69903,9.2307,0.055974,0,0,0,0
345.63,0.71468,9.2574,0.057412,0,0,0,0
348.63,0.72862,9.2847,0.058381,0,0,0,0
351.63,0.74451,9.3117,0.059754,0,0,0,0
354.63,0.75815,9.3389,0.061001,0,0,0,0
357.63,0.77404,9.3647,0.062246,0,0,0,0
360.63,0.78768,9.3897,0.063707,0,0,0,0
363.63,0.80363,9.4149,0.065197,0,0,0,0
366.63,0.81776,9.4394,0.066313,0,0,0,0
369.63,0.83369,9.4627,0.06752,0,0,0,0
372.63,0.84822,9.487,0.069158,0,0,0,0
375.63,0.86437,9.5094,0.070795,0,0,0,0
378.63,0.87959,9.532,0.071842,0,0,0,0
381.63,0.89538,9.5547,0.073352,0,0,0,0
384.63,0.91134,9.5764,0.075226,0,0,0,0
387.63,0.92692,9.5967,0.076638,0,0,0,0
390.63,0.94331,9.6187,0.077833,0,0,0,0
393.63,0.95847,9.6376,0.079302,0,0,0,0
396.63,0.97574,9.658,0.081104,0,0,0,0
399.63,0.99084,9.678,0.082752,0,0,0,0
402.63,1.0077,9.6969,0.084244,0,0,0,0
405.63,1.0233,9.7156,0.085643,0,0,0,0
408.63,1.0403,9.7343,0.087707,0,0,0,0
411.63,1.0556,9.7523,0.089494,0,0,0,0
414.63,1.0724,9.7696,0.090584,0,0,0,0
417.63,1.0889,9.7863,0.092396,0,0,0,0
420.63,1.105,9.8033,0.094356,0,0,0,0
423.63,1.1222,9.8189,0.096252,0,0,0,0
426.63,1.138,9.8353,0.097725,0,0,0,0
429.63,1.1558,9.8503,0.099674,0,0,0,0
432.63,1.1715,9.8657,0.10129,0,0,0,0
435.63,1.1893,9.8797,0.10332,0,0,0,0
438.63,1.2054,9.8947,0.10508,0,0,0,0
441.63,1.2232,9.9084,0.1066,0,0,0,0
444.63,1.2406,9.922,0.10904,0,0,0,0
447.63,1.2577,9.935,0.111,0,0,0,0
450.63,1.2758,9.948,0.11265,0,0,0,0
453.63,1.2923,9.9596,0.11457,0,0,0,0
456.63,1.3108,9.972,0.11684,0,0,0,0
459.63,1.3274,9.984,0.11882,0,0,0,0
462.63,1.3457,9.995,0.12102,0,0,0,0
465.63,1.3627,10.006,0.12313,0,0,0,0
468.63,1.3806,10.016,0.125,0,0,0,0
471.63,1.3983,10.026,0.12742,0,0,0,0
474.63,1.4156,10.036,0.12969,0,0,0,0
477.63,1.4345,10.046,0.13176,0,0,0,0
480.63,1.4514,10.055,0.1341,0,0,0,0
483.63,1.4702,10.064,0.13621,0,0,0,0
486.63,1.4874,10.072,0.13887,0,0,0,0
489.63,1.506,10.08,0.14134,0,0,0,0
492.63,1.5244,10.087,0.14413,0,0,0,0
495.63,1.5418,10.094,0.14659,0,0,0,0
498.63,1.561,10.101,0.14904,0,0,0,0
501.63,1.5782,10.108,0.15169,0,0,0,0
504.63,1.5976,10.114,0.15402,0,0,0,0
507.63,1.6151,10.119,0.15646,0,0,0,0
510.63,1.6338,10.125,0.15957,0,0,0,0
513.63,1.6527,10.13,0.16253,0,0,0,0
516.63,1.6704,10.134,0.16523,0,0,0,0
519.63,1.6901,10.139,0.16789,0,0,0,0
522.63,1.7082,10.143,0.17057,0,0,0,0
525.63,1.7282,10.147,0.17411,0,0,0,0
528.63,1.7471,10.15,0.17653,0,0,0,0
531.63,1.7658,10.153,0.17897,0,0,0,0
534.63,1.7856,10.155,0.18317,0,0,0,0
537.63,1.8042,10.157,0.18644,0,0,0,0
540.63,1.8242,10.158,0.1896,0,0,0,0
543.63,1.8431,10.16,0.19299,0,0,0,0
546.63,1.8627,10.161,0.19604,0,0,0,0
549.63,1.8824,10.161,0.1997,0,0,0,0
552.63,1.9012,10.161,0.2032,0,0,0,0
555.63,1.9217,10.16,0.20676,0,0,0,0
558.63,1.941,10.159,0.21057,0,0,0,0
561.63,1.9605,10.158,0.21424,0,0,0,0
564.63,1.9807,10.157,0.21808,0,0,0,0
567.63,2,10.154,0.22214,0,0,0,0
570.63,2.0208,10.152,0.2268,0,0,0,0
573.63,2.0401,10.148,0.23083,0,0,0,0
576.63,2.0601,10.144,0.23502,0,0,0,0
579.63,2.0805,10.14,0.23923,0,0,0,0
582.63,2.0998,10.136,0.24352,0,0,0,0
585.63,2.1208,10.131,0.2479,0,0,0,0
588.63,2.1403,10.125,0.25259,0,0,0,0
591.63,2.1605,10.119,0.25777,0,0,0,0
594.63,2.1815,10.113,0.26216,0,0,0,0
597.63,2.2013,10.106,0.26747,0,0,0,0
600.63,2.2225,10.097,0.27189,0,0,0,0
603.63,2.2426,10.089,0.278,0,0,0,0
606.63,2.2629,10.08,0.28278,0,0,0,0
609.63,2.2843,10.07,0.2889,0,0,0,0
612.62,2.3039,10.061,0.29422,0,0,0,0
615.63,2.325,10.05,0.30014,0,0,0,0
618.62,2.3457,10.038,0.30565,0,0,0,0
621.62,2.3655,10.026,0.31209,0,0,0,0
624.62,2.3869,10.014,0.31791,0,0,0,0
627.63,2.4068,10,0.32521,0,0,0,0
630.62,2.4279,9.9863,0.33148,0,0,0,0
633.62,2.4491,9.9713,0.33787,0,0,0,0
636.62,2.4689,9.956,0.34416,0,0,0,0
639.63,2.4908,9.9397,0.3511,0,0,0,0
642.62,2.5115,9.9227,0.35763,0,0,0,0
645.62,2.5323,9.9037,0.36478,0,0,0,0
648.62,2.5542,9.8847,0.37239,0,0,0,0
651.62,2.5742,9.8647,0.37873,0,0,0,0
654.62,2.5964,9.843,0.3863,0,0,0,0
657.62,2.618,9.8211,0.39501,0,0,0,0
660.62,2.6382,9.798,0.40279,0,0,0,0
663.62,2.6609,9.773,0.41147,0,0,0,0
666.62,2.6815,9.7471,0.42025,0,0,0,0
669.62,2.7029,9.7197,0.42891,0,0,0,0
672.62,2.7257,9.6904,0.43722,0,0,0,0
675.62,2.7466,9.6601,0.44599,0,0,0,0
678.62,2.7688,9.6271,0.45601,0,0,0,0
681.62,2.7912,9.5926,0.46564,0,0,0,0
684.62,2.8121,9.5561,0.4747,0,0,0,0
687.62,2.8352,9.5177,0.4835,0,0,0,0
690.62,2.8572,9.4773,0.49299,0,0,0,0
693.62,2.8784,9.4329,0.50265,0,0,0,0
696.62,2.9015,9.3871,0.51353,0,0,0,0
699.62,2.9235,9.338,0.52379,0,0,0,0
702.62,2.9461,9.2846,0.53392,0,0,0,0
705.62,2.97,9.2264,0.54289,0,0,0,0
708.62,2.9923,9.1653,0.55442,0,0,0,0
711.62,3.0228,9.0843,0.56932,0,0,0,0