Folder: ethz/polyN_optimization/DP600_results/DATA (part 6)

File: NT6_90_3.csv
Time[s],Displacement[mm],Force[kN],AxStrain_1,AxStrain_2,Thickness[mm],OuterWidth[mm],InnerWidth[mm]
0.59,0,-0.020733,0,0,1.5269,20,10
3.09,0.000627,0.052846,6.3998e-05,0,0,0,0
5.59,0.000675,0.18571,4.1999e-05,0,0,0,0
8.09,0.000837,0.27357,-0.00014501,0,0,0,0
10.59,0.001224,0.36772,-9.8005e-05,0,0,0,0
13.09,0.001712,0.46242,3.1e-05,0,0,0,0
15.59,0.002172,0.55272,-0.00024203,0,0,0,0
18.09,0.002261,0.64457,-9.6005e-05,0,0,0,0
20.59,0.002403,0.74543,-0.00012601,0,0,0,0
23.09,0.00296,0.84285,-9.3004e-05,0,0,0,0
25.59,0.004092,0.94615,-5.3001e-05,0,0,0,0
28.09,0.003973,1.0457,0.00014199,0,0,0,0
30.59,0.003923,1.1516,-0.00020902,0,0,0,0
33.09,0.004784,1.254,0.00010299,0,0,0,0
35.59,0.005879,1.357,0.00012599,0,0,0,0
38.09,0.005959,1.4589,0.00018198,0,0,0,0
40.59,0.005711,1.5616,-7.9003e-05,0,0,0,0
43.09,0.006088,1.6623,-0.00020202,0,0,0,0
45.59,0.007512,1.7629,0.00010899,0,0,0,0
48.09,0.008299,1.8664,0.00016899,0,0,0,0
50.59,0.007449,1.9664,1e-05,0,0,0,0
53.09,0.00773,2.0683,-0.00011601,0,0,0,0
55.59,0.009104,2.1681,4.2999e-05,0,0,0,0
58.09,0.010104,2.2704,0.00029796,0,0,0,0
60.59,0.009505,2.3704,0.00023497,0,0,0,0
63.09,0.009591,2.4709,0.00012599,0,0,0,0
65.59,0.010951,2.5733,0.00020898,0,0,0,0
68.09,0.012093,2.6739,0.00032795,0,0,0,0
70.59,0.011229,2.7746,0.00027096,0,0,0,0
73.09,0.011057,2.8736,0.00030795,0,0,0,0
75.59,0.012468,2.9729,0.00047289,0,0,0,0
78.09,0.013931,3.0724,0.00064879,0,0,0,0
80.59,0.013358,3.172,0.0004569,0,0,0,0
83.09,0.012766,3.2701,0.00023497,0,0,0,0
85.59,0.01458,3.3671,0.00039692,0,0,0,0
88.09,0.016308,3.4669,0.00064879,0,0,0,0
90.59,0.015719,3.5674,0.00053985,0,0,0,0
93.09,0.015113,3.6616,0.00026197,0,0,0,0
95.59,0.01643,3.7611,0.00033394,0,0,0,0
98.09,0.018228,3.8584,0.00059882,0,0,0,0
100.59,0.018486,3.9577,0.00049988,0,0,0,0
103.09,0.017715,4.0536,0.00042691,0,0,0,0
105.59,0.019115,4.1531,0.00038393,0,0,0,0
108.09,0.021181,4.2501,0.00056884,0,0,0,0
110.59,0.020771,4.3466,0.00066178,0,0,0,0
113.09,0.020592,4.4419,0.00059582,0,0,0,0
115.59,0.021618,4.5401,0.00036393,0,0,0,0
118.09,0.02377,4.6347,0.00069476,0,0,0,0
120.59,0.024201,4.7286,0.0008936,0,0,0,0
123.09,0.023803,4.8231,0.0006288,0,0,0,0
125.59,0.024797,4.9174,0.00046289,0,0,0,0
128.09,0.02665,5.0116,0.00076071,0,0,0,0
130.59,0.02771,5.1063,0.0011913,0,0,0,0
133.09,0.027975,5.2009,0.00099251,0,0,0,0
135.59,0.028868,5.2951,0.00079468,0,0,0,0
138.09,0.030623,5.3846,0.0010584,0,0,0,0
140.59,0.032179,5.4784,0.001389,0,0,0,0
143.09,0.033272,5.569,0.0011913,0,0,0,0
145.59,0.035192,5.6607,0.0011913,0,0,0,0
148.09,0.036616,5.7516,0.001423,0,0,0,0
150.59,0.037742,5.8414,0.0020509,0,0,0,0
153.09,0.039861,5.9297,0.0017864,0,0,0,0
155.59,0.042973,6.017,0.0017205,0,0,0,0
158.09,0.044363,6.1039,0.0018523,0,0,0,0
160.59,0.045687,6.1914,0.0026784,0,0,0,0
163.09,0.048964,6.2747,0.0027113,0,0,0,0
165.59,0.053169,6.358,0.0023153,0,0,0,0
168.09,0.055387,6.4396,0.002844,0,0,0,0
170.59,0.057539,6.5199,0.0036683,0,0,0,0
173.09,0.062075,6.5994,0.0038336,0,0,0,0
175.59,0.065452,6.6793,0.003735,0,0,0,0
178.09,0.069028,6.7561,0.0041962,0,0,0,0
180.59,0.074126,6.8334,0.0054153,0,0,0,0
183.09,0.078,6.9059,0.005646,0,0,0,0
185.59,0.081179,6.9799,0.0053497,0,0,0,0
188.09,0.086145,7.051,0.0055138,0,0,0,0
190.59,0.092137,7.1226,0.0070938,0,0,0,0
193.09,0.096673,7.1921,0.0075534,0,0,0,0
195.59,0.10184,7.2599,0.0069617,0,0,0,0
198.09,0.10743,7.3263,0.0073569,0,0,0,0
200.59,0.11187,7.3917,0.0087684,0,0,0,0
203.09,0.11736,7.456,0.0095235,0,0,0,0
205.59,0.12458,7.5211,0.0090311,0,0,0,0
208.09,0.13014,7.5827,0.0092937,0,0,0,0
210.59,0.13604,7.6451,0.010704,0,0,0,0
213.09,0.14299,7.7066,0.011752,0,0,0,0
215.59,0.14809,7.7664,0.011065,0,0,0,0
218.09,0.15428,7.8277,0.011261,0,0,0,0
220.59,0.16236,7.8863,0.012897,0,0,0,0
223.09,0.16858,7.9441,0.013747,0,0,0,0
225.59,0.1764,8.0004,0.013421,0,0,0,0
228.09,0.18398,8.0557,0.013748,0,0,0,0
230.59,0.1901,8.1111,0.015053,0,0,0,0
233.09,0.19782,8.1633,0.01603,0,0,0,0
235.59,0.2049,8.2169,0.015574,0,0,0,0
238.09,0.21179,8.2684,0.0159,0,0,0,0
240.59,0.22103,8.3206,0.017398,0,0,0,0
243.09,0.22848,8.37,0.01847,0,0,0,0
245.59,0.23632,8.4196,0.018308,0,0,0,0
248.09,0.2453,8.4684,0.018535,0,0,0,0
250.59,0.25238,8.517,0.019803,0,0,0,0
253.09,0.26079,8.565,0.020808,0,0,0,0
255.59,0.26966,8.6123,0.020937,0,0,0,0
258.09,0.27748,8.6581,0.021522,0,0,0,0
260.59,0.28754,8.704,0.022461,0,0,0,0
263.09,0.29645,8.7481,0.023464,0,0,0,0
265.59,0.30496,8.7926,0.023756,0,0,0,0
268.09,0.31522,8.8359,0.024337,0,0,0,0
270.59,0.32343,8.879,0.025081,0,0,0,0
273.09,0.33313,8.9207,0.026371,0,0,0,0
275.59,0.34207,8.9623,0.02692,0,0,0,0
278.09,0.35058,9.0033,0.027501,0,0,0,0
280.59,0.36134,9.0431,0.028241,0,0,0,0
283.09,0.37035,9.0824,0.029303,0,0,0,0
285.59,0.38084,9.1211,0.030076,0,0,0,0
288.09,0.39117,9.16,0.030848,0,0,0,0
290.59,0.40051,9.1979,0.03181,0,0,0,0
293.09,0.41157,9.2347,0.03261,0,0,0,0
295.59,0.42107,9.2714,0.033572,0,0,0,0
298.09,0.4314,9.3081,0.034148,0,0,0,0
300.59,0.44153,9.3434,0.035011,0,0,0,0
303.09,0.45113,9.3777,0.036129,0,0,0,0
305.59,0.46296,9.4126,0.037087,0,0,0,0
308.09,0.47265,9.4447,0.038043,0,0,0,0
310.59,0.48414,9.4786,0.038744,0,0,0,0
313.09,0.49523,9.5111,0.039795,0,0,0,0
315.59,0.50557,9.5446,0.040812,0,0,0,0
318.09,0.51758,9.5751,0.041637,0,0,0,0
320.59,0.52768,9.6063,0.042717,0,0,0,0
323.09,0.53964,9.6367,0.0437,0,0,0,0
325.59,0.55013,9.6669,0.044777,0,0,0,0
328.09,0.56109,9.6969,0.045884,0,0,0,0
330.59,0.57268,9.7266,0.046707,0,0,0,0
333.09,0.58331,9.7557,0.048097,0,0,0,0
335.59,0.59599,9.7829,0.04901,0,0,0,0
338.09,0.60672,9.8117,0.05005,0,0,0,0
340.59,0.6194,9.8389,0.051153,0,0,0,0
343.09,0.63105,9.866,0.052474,0,0,0,0
345.59,0.64314,9.8919,0.053573,0,0,0,0
348.09,0.65572,9.9177,0.054891,0,0,0,0
350.59,0.66704,9.9436,0.056143,0,0,0,0
353.09,0.68039,9.968,0.057208,0,0,0,0
355.59,0.69154,9.9936,0.058614,0,0,0,0
358.09,0.70459,10.017,0.059831,0,0,0,0
360.59,0.71621,10.041,0.061141,0,0,0,0
363.09,0.72863,10.065,0.062666,0,0,0,0
365.59,0.74141,10.088,0.064035,0,0,0,0
368.09,0.75319,10.109,0.065463,0,0,0,0
370.59,0.76664,10.131,0.066827,0,0,0,0
373.09,0.77842,10.153,0.068159,0,0,0,0
375.59,0.79243,10.174,0.069642,0,0,0,0
378.09,0.80415,10.194,0.070937,0,0,0,0
380.59,0.81799,10.214,0.07248,0,0,0,0
383.09,0.83084,10.233,0.074112,0,0,0,0
385.59,0.84372,10.253,0.075493,0,0,0,0
388.09,0.85762,10.272,0.076967,0,0,0,0
390.59,0.87014,10.29,0.078681,0,0,0,0
393.09,0.88441,10.307,0.080456,0,0,0,0
395.59,0.89686,10.325,0.081922,0,0,0,0
398.09,0.91146,10.343,0.083293,0,0,0,0
400.59,0.9244,10.36,0.085332,0,0,0,0
403.09,0.93861,10.375,0.087217,0,0,0,0
405.59,0.95162,10.392,0.088824,0,0,0,0
408.09,0.96602,10.408,0.090519,0,0,0,0
410.59,0.97947,10.422,0.092512,0,0,0,0
413.09,0.99324,10.436,0.094534,0,0,0,0
415.59,1.0073,10.45,0.096609,0,0,0,0
418.09,1.0205,10.464,0.098502,0,0,0,0
420.59,1.0354,10.477,0.10042,0,0,0,0
423.09,1.0485,10.49,0.10242,0,0,0,0
425.59,1.0637,10.501,0.10449,0,0,0,0
428.09,1.0767,10.513,0.10657,0,0,0,0
430.59,1.0922,10.525,0.10871,0,0,0,0
433.09,1.1056,10.536,0.11094,0,0,0,0
435.59,1.121,10.545,0.11342,0,0,0,0
438.09,1.1349,10.555,0.11561,0,0,0,0
440.59,1.1503,10.565,0.1182,0,0,0,0
443.09,1.1645,10.574,0.12061,0,0,0,0
445.59,1.1797,10.583,0.12307,0,0,0,0
448.09,1.1947,10.59,0.12562,0,0,0,0
450.59,1.2096,10.598,0.12833,0,0,0,0
453.09,1.2252,10.604,0.13104,0,0,0,0
455.59,1.2398,10.61,0.13364,0,0,0,0
458.09,1.2558,10.616,0.13662,0,0,0,0
460.59,1.2703,10.622,0.13963,0,0,0,0
463.09,1.2864,10.626,0.14256,0,0,0,0
465.59,1.3013,10.63,0.14574,0,0,0,0
468.09,1.3178,10.634,0.14877,0,0,0,0
470.59,1.3324,10.636,0.15219,0,0,0,0
473.09,1.3493,10.639,0.15542,0,0,0,0
475.59,1.3641,10.641,0.15882,0,0,0,0
478.09,1.3813,10.642,0.16257,0,0,0,0
480.59,1.3961,10.642,0.16614,0,0,0,0
483.09,1.4137,10.642,0.16995,0,0,0,0
485.59,1.4288,10.64,0.17404,0,0,0,0
488.09,1.4462,10.638,0.17818,0,0,0,0
490.59,1.4616,10.636,0.18235,0,0,0,0
493.09,1.4795,10.632,0.1867,0,0,0,0
495.59,1.495,10.627,0.19112,0,0,0,0
498.09,1.5127,10.621,0.19554,0,0,0,0
500.59,1.5281,10.615,0.20081,0,0,0,0
503.09,1.5461,10.608,0.20549,0,0,0,0
505.59,1.5619,10.6,0.2106,0,0,0,0
508.09,1.5797,10.591,0.2156,0,0,0,0
510.59,1.5958,10.581,0.22093,0,0,0,0
513.09,1.6141,10.57,0.22617,0,0,0,0
515.59,1.6299,10.557,0.23201,0,0,0,0
518.09,1.6484,10.545,0.23825,0,0,0,0
520.59,1.6646,10.531,0.2441,0,0,0,0
523.09,1.6831,10.514,0.25052,0,0,0,0
525.59,1.7,10.498,0.25673,0,0,0,0
528.09,1.7186,10.48,0.26345,0,0,0,0
530.59,1.7352,10.461,0.2705,0,0,0,0
533.09,1.7538,10.439,0.2768,0,0,0,0
535.59,1.7712,10.418,0.28403,0,0,0,0
538.09,1.7896,10.393,0.29136,0,0,0,0
540.59,1.8075,10.369,0.29827,0,0,0,0
543.09,1.8255,10.341,0.30593,0,0,0,0
545.59,1.8438,10.313,0.313,0,0,0,0
548.09,1.8619,10.283,0.32085,0,0,0,0
550.59,1.8806,10.25,0.32871,0,0,0,0
553.09,1.8984,10.216,0.33711,0,0,0,0
555.59,1.918,10.181,0.34596,0,0,0,0
558.09,1.9357,10.141,0.35471,0,0,0,0
560.59,1.9557,10.101,0.36323,0,0,0,0
563.09,1.9739,10.057,0.37229,0,0,0,0
565.59,1.9941,10.01,0.38084,0,0,0,0
568.09,2.0128,9.9611,0.39052,0,0,0,0
570.59,2.0332,9.9084,0.40055,0,0,0,0
573.09,2.0529,9.8513,0.40957,0,0,0,0
575.59,2.073,9.7899,0.41992,0,0,0,0
578.09,2.0935,9.7241,0.42934,0,0,0,0
580.59,2.1135,9.653,0.44069,0,0,0,0
583.09,2.1358,9.575,0.45211,0,0,0,0
585.59,2.1568,9.4846,0.46385,0,0,0,0
586.09,2.1619,9.4623,0.46708,0,0,0,0

File: NT20_00_1.csv
Time[s],Displacement[mm],Force[kN],AxStrain_1,AxStrain_2,Thickness[mm],OuterWidth[mm],InnerWidth[mm]
0.65,0,-0.016605,0,0,1.5269,20,10.006
3.65,0.000594,0.078705,-0.00013401,0,0,0,0
6.64,0.000949,0.224,-1.9e-05,0,0,0,0
9.64,0.001213,0.33157,3.6999e-05,0,0,0,0
12.64,0.001882,0.44242,0.00033394,0,0,0,0
15.64,0.002476,0.54757,8.2997e-05,0,0,0,0
18.64,0.002771,0.65685,-1e-05,0,0,0,0
21.64,0.002903,0.77171,0.00031495,0,0,0,0
24.64,0.004052,0.88757,0.00015899,0,0,0,0
27.64,0.004628,1.0073,5.9998e-05,0,0,0,0
30.64,0.004684,1.1251,0.00031495,0,0,0,0
33.65,0.005277,1.2439,0.00023197,0,0,0,0
36.65,0.006677,1.3646,-4.0001e-05,0,0,0,0
39.64,0.006472,1.4844,0.00016899,0,0,0,0
42.65,0.006432,1.6016,0.00027096,0,0,0,0
45.64,0.008078,1.7221,0.00020198,0,0,0,0
48.65,0.008551,1.8407,0.00011299,0,0,0,0
51.65,0.008197,1.9569,0.00022797,0,0,0,0
54.65,0.009054,2.0753,0.00037693,0,0,0,0
57.64,0.011031,2.1937,0.00032795,0,0,0,0
60.65,0.010302,2.3089,0.00031795,0,0,0,0
63.64,0.010478,2.4266,0.00048988,0,0,0,0
66.64,0.012484,2.5451,0.00071474,0,0,0,0
69.64,0.01314,2.6606,0.0004369,0,0,0,0
72.64,0.01255,2.7776,0.00046689,0,0,0,0
75.64,0.013739,2.894,0.00074772,0,0,0,0
78.64,0.015841,3.0099,0.00046989,0,0,0,0
81.64,0.015328,3.1276,0.00042691,0,0,0,0
84.64,0.015417,3.2437,0.00067177,0,0,0,0
87.64,0.017715,3.3579,0.00071774,0,0,0,0
90.64,0.018483,3.4759,0.00069876,0,0,0,0
93.64,0.017861,3.5914,0.00069876,0,0,0,0
96.64,0.019552,3.7046,0.00081367,0,0,0,0
99.64,0.021406,3.8206,0.00083065,0,0,0,0
102.64,0.021237,3.9354,0.00069176,0,0,0,0
105.64,0.021698,4.0473,0.00085064,0,0,0,0
108.64,0.024257,4.1609,0.0009995,0,0,0,0
111.64,0.024909,4.2737,0.00082766,0,0,0,0
114.64,0.025127,4.3839,0.0010255,0,0,0,0
117.64,0.027048,4.4966,0.0012572,0,0,0,0
120.64,0.028537,4.6081,0.0012902,0,0,0,0
123.64,0.029564,4.7151,0.0012572,0,0,0,0
126.64,0.031053,4.8251,0.0014889,0,0,0,0
129.64,0.032742,4.9331,0.0017535,0,0,0,0
132.64,0.034496,5.0387,0.0015218,0,0,0,0
135.64,0.036781,5.1429,0.0016536,0,0,0,0
138.64,0.038304,5.2491,0.0020838,0,0,0,0
141.64,0.040423,5.353,0.0023812,0,0,0,0
144.64,0.044329,5.4549,0.0021826,0,0,0,0
147.64,0.047474,5.5579,0.0026784,0,0,0,0
150.64,0.049163,5.6577,0.0032397,0,0,0,0
153.64,0.053864,5.7529,0.0032069,0,0,0,0
156.64,0.058333,5.8489,0.0035357,0,0,0,0
159.64,0.061743,5.9413,0.0045586,0,0,0,0
162.64,0.066742,6.0306,0.0048214,0,0,0,0
165.64,0.071344,6.1191,0.0049209,0,0,0,0
168.64,0.07674,6.2043,0.0056122,0,0,0,0
171.64,0.083957,6.2861,0.0067303,0,0,0,0
174.64,0.088824,6.3681,0.006468,0,0,0,0
177.64,0.095147,6.4476,0.00706,0,0,0,0
180.64,0.1019,6.5241,0.0085057,0,0,0,0
183.64,0.10899,6.6009,0.0088993,0,0,0,0
186.64,0.11759,6.675,0.0087684,0,0,0,0
189.64,0.12412,6.7464,0.009982,0,0,0,0
192.64,0.13183,6.8189,0.011095,0,0,0,0
195.64,0.13925,6.8886,0.010867,0,0,0,0
198.64,0.14722,6.9559,0.011424,0,0,0,0
201.64,0.15696,7.0241,0.013156,0,0,0,0
204.64,0.16477,7.0911,0.013515,0,0,0,0
207.64,0.17434,7.1551,0.013156,0,0,0,0
210.64,0.18192,7.2201,0.014723,0,0,0,0
213.64,0.19119,7.2833,0.015539,0,0,0,0
216.64,0.20053,7.3434,0.015245,0,0,0,0
219.64,0.21003,7.4051,0.016223,0,0,0,0
222.64,0.22079,7.4649,0.017785,0,0,0,0
225.64,0.22976,7.5224,0.017915,0,0,0,0
228.64,0.24055,7.5809,0.018338,0,0,0,0
231.64,0.24932,7.638,0.019507,0,0,0,0
234.64,0.26035,7.6924,0.020383,0,0,0,0
237.64,0.27071,7.7474,0.020773,0,0,0,0
240.64,0.2821,7.8003,0.02181,0,0,0,0
243.64,0.29289,7.8511,0.022878,0,0,0,0
246.64,0.30395,7.9016,0.023299,0,0,0,0
249.64,0.31504,7.9517,0.024269,0,0,0,0
252.64,0.32504,8.0011,0.025045,0,0,0,0
255.64,0.33712,8.0493,0.026045,0,0,0,0
258.64,0.34792,8.0964,0.026916,0,0,0,0
261.64,0.3605,8.1434,0.027752,0,0,0,0
264.64,0.37185,8.1886,0.028621,0,0,0,0
267.64,0.38519,8.2337,0.029715,0,0,0,0
270.64,0.39622,8.2784,0.030615,0,0,0,0
273.64,0.40963,8.3216,0.031449,0,0,0,0
276.64,0.42042,8.3634,0.032635,0,0,0,0
279.64,0.43363,8.4064,0.033404,0,0,0,0
282.64,0.44525,8.4473,0.034428,0,0,0,0
285.64,0.45905,8.4867,0.03561,0,0,0,0
288.64,0.47107,8.5267,0.036344,0,0,0,0
291.64,0.48528,8.5659,0.037653,0,0,0,0
294.64,0.49766,8.6031,0.038577,0,0,0,0
297.64,0.51189,8.6419,0.039437,0,0,0,0
300.64,0.52424,8.6784,0.040709,0,0,0,0
303.64,0.53838,8.7143,0.041853,0,0,0,0
306.64,0.55069,8.7503,0.042805,0,0,0,0
309.64,0.5648,8.7849,0.043914,0,0,0,0
312.64,0.57748,8.819,0.04496,0,0,0,0
315.64,0.59264,8.8527,0.046193,0,0,0,0
318.64,0.60542,8.8851,0.047299,0,0,0,0
321.64,0.62081,8.9163,0.04853,0,0,0,0
324.64,0.63412,8.9483,0.049728,0,0,0,0
327.64,0.64942,8.9784,0.050799,0,0,0,0
330.64,0.66243,9.009,0.05215,0,0,0,0
333.64,0.67792,9.0386,0.053375,0,0,0,0
336.64,0.69123,9.0681,0.054692,0,0,0,0
339.64,0.70639,9.097,0.056008,0,0,0,0
342.64,0.72,9.1263,0.057259,0,0,0,0
345.64,0.73559,9.1536,0.05854,0,0,0,0
348.64,0.74996,9.1803,0.060162,0,0,0,0
351.64,0.76535,9.2073,0.061346,0,0,0,0
354.64,0.78005,9.2331,0.062374,0,0,0,0
357.64,0.79541,9.259,0.064113,0,0,0,0
360.64,0.81081,9.2846,0.065571,0,0,0,0
363.64,0.82594,9.3086,0.066719,0,0,0,0
366.64,0.8417,9.3323,0.068081,0,0,0,0
369.64,0.85679,9.356,0.069563,0,0,0,0
372.64,0.87272,9.379,0.071014,0,0,0,0
375.64,0.88765,9.402,0.072523,0,0,0,0
378.64,0.9038,9.4233,0.073939,0,0,0,0
381.64,0.91804,9.4453,0.075352,0,0,0,0
384.64,0.93489,9.4666,0.077131,0,0,0,0
387.64,0.94969,9.4876,0.078388,0,0,0,0
390.64,0.96601,9.5086,0.079887,0,0,0,0
393.64,0.98141,9.5283,0.081597,0,0,0,0
396.64,0.99803,9.5474,0.083273,0,0,0,0
399.64,1.0138,9.566,0.084705,0,0,0,0
402.64,1.0303,9.5854,0.086437,0,0,0,0
405.64,1.047,9.6037,0.088045,0,0,0,0
408.64,1.063,9.6216,0.089651,0,0,0,0
411.64,1.0805,9.6386,0.091344,0,0,0,0
414.64,1.0962,9.6553,0.093005,0,0,0,0
417.64,1.1139,9.6723,0.094481,0,0,0,0
420.64,1.1299,9.689,0.096558,0,0,0,0
423.64,1.1474,9.7047,0.098299,0,0,0,0
426.64,1.1638,9.72,0.099978,0,0,0,0
429.64,1.181,9.7347,0.10168,0,0,0,0
432.64,1.198,9.7497,0.10378,0,0,0,0
435.64,1.2145,9.7633,0.10559,0,0,0,0
438.64,1.2323,9.7766,0.10711,0,0,0,0
441.64,1.2479,9.79,0.10931,0,0,0,0
444.64,1.2659,9.8036,0.11147,0,0,0,0
447.64,1.2822,9.816,0.11328,0,0,0,0
450.64,1.3001,9.828,0.11529,0,0,0,0
453.64,1.3169,9.8406,0.11735,0,0,0,0
456.64,1.3344,9.852,0.11953,0,0,0,0
459.64,1.3522,9.863,0.12176,0,0,0,0
462.64,1.3698,9.8741,0.12363,0,0,0,0
465.64,1.3881,9.8847,0.12585,0,0,0,0
468.64,1.405,9.8943,0.12848,0,0,0,0
471.64,1.4234,9.904,0.13051,0,0,0,0
474.64,1.4408,9.913,0.13283,0,0,0,0
477.64,1.4594,9.9227,0.13524,0,0,0,0
480.64,1.4769,9.931,0.13737,0,0,0,0
483.64,1.4951,9.9393,0.13988,0,0,0,0
486.64,1.5137,9.947,0.1425,0,0,0,0
489.64,1.5313,9.955,0.14476,0,0,0,0
492.64,1.5506,9.962,0.14739,0,0,0,0
495.64,1.5683,9.9694,0.14999,0,0,0,0
498.64,1.5872,9.975,0.15261,0,0,0,0
501.64,1.606,9.981,0.15528,0,0,0,0
504.64,1.624,9.9867,0.15825,0,0,0,0
507.64,1.6434,9.992,0.16084,0,0,0,0
510.64,1.661,9.9966,0.16341,0,0,0,0
513.64,1.6805,10.002,0.16633,0,0,0,0
516.64,1.6985,10.005,0.16924,0,0,0,0
519.64,1.7175,10.01,0.17225,0,0,0,0
522.64,1.7369,10.013,0.17517,0,0,0,0
525.64,1.7551,10.016,0.17809,0,0,0,0
528.64,1.7747,10.019,0.1813,0,0,0,0
531.64,1.7934,10.021,0.18485,0,0,0,0
534.64,1.8132,10.023,0.18829,0,0,0,0
537.64,1.8328,10.025,0.19157,0,0,0,0
540.64,1.8514,10.026,0.19498,0,0,0,0
543.64,1.8719,10.027,0.19838,0,0,0,0
546.64,1.8906,10.027,0.20236,0,0,0,0
549.64,1.911,10.027,0.20585,0,0,0,0
552.64,1.9304,10.025,0.2094,0,0,0,0
555.64,1.9496,10.025,0.21336,0,0,0,0
558.64,1.9703,10.023,0.21734,0,0,0,0
561.64,1.9889,10.021,0.22117,0,0,0,0
564.64,2.0096,10.019,0.22551,0,0,0,0
567.64,2.0295,10.016,0.22949,0,0,0,0
570.64,2.0493,10.013,0.23391,0,0,0,0
573.64,2.07,10.009,0.23835,0,0,0,0
576.64,2.0892,10.004,0.24277,0,0,0,0
579.64,2.1096,9.9993,0.24744,0,0,0,0
582.64,2.1301,9.994,0.25223,0,0,0,0
585.64,2.1496,9.988,0.25696,0,0,0,0
588.64,2.1703,9.9813,0.26171,0,0,0,0
591.64,2.1898,9.975,0.26727,0,0,0,0
594.64,2.2105,9.967,0.27172,0,0,0,0
597.64,2.2312,9.9587,0.27705,0,0,0,0
600.64,2.2511,9.9506,0.28251,0,0,0,0
603.64,2.2723,9.941,0.28833,0,0,0,0
606.64,2.2924,9.9313,0.29439,0,0,0,0
609.64,2.3129,9.9206,0.30047,0,0,0,0
612.64,2.3341,9.909,0.30633,0,0,0,0
615.64,2.3541,9.897,0.31243,0,0,0,0
618.64,2.3756,9.8843,0.31869,0,0,0,0
621.64,2.396,9.8707,0.32528,0,0,0,0
624.64,2.4164,9.8567,0.33181,0,0,0,0
627.64,2.438,9.8414,0.33861,0,0,0,0
630.64,2.4579,9.825,0.34517,0,0,0,0
633.64,2.4794,9.8087,0.3525,0,0,0,0
636.64,2.5003,9.791,0.35951,0,0,0,0
639.64,2.5203,9.773,0.36676,0,0,0,0
642.64,2.5425,9.7537,0.37455,0,0,0,0
645.64,2.5625,9.7327,0.38204,0,0,0,0
648.64,2.5839,9.7114,0.39038,0,0,0,0
651.64,2.606,9.6883,0.39828,0,0,0,0
654.64,2.6263,9.6639,0.40691,0,0,0,0
657.64,2.6481,9.638,0.41512,0,0,0,0
660.64,2.6699,9.6107,0.42372,0,0,0,0
663.64,2.6906,9.5831,0.43235,0,0,0,0
666.64,2.7129,9.5527,0.44159,0,0,0,0
669.64,2.7344,9.52,0.45049,0,0,0,0
672.64,2.756,9.4859,0.4604,0,0,0,0
675.64,2.7784,9.4507,0.46951,0,0,0,0
678.64,2.7995,9.412,0.48032,0,0,0,0
681.64,2.8221,9.3714,0.49026,0,0,0,0
684.64,2.8454,9.3281,0.50055,0,0,0,0
687.64,2.8674,9.2814,0.51125,0,0,0,0
690.64,2.8905,9.2316,0.52252,0,0,0,0
693.64,2.9137,9.1784,0.53375,0,0,0,0
696.64,2.9363,9.1199,0.54552,0,0,0,0
699.64,2.9609,9.0591,0.55785,0,0,0,0
702.64,2.9846,8.9911,0.56984,0,0,0,0
705.64,3.0082,8.9171,0.58289,0,0,0,0
708.64,3.0331,8.8377,0.59606,0,0,0,0
711.64,3.058,8.7506,-Inf,0,0,0,0
714.64,3.0831,8.6493,-Inf,0,0,0,0
716.64,3.1033,8.5738,-Inf,0,0,0,0