Folder: ethz/polyN_optimization/DP600_results/DATA (part 5)

File: NT6_45_3.csv
Time[s],Displacement[mm],Force[kN],AxStrain_1,AxStrain_2,Thickness[mm],OuterWidth[mm],InnerWidth[mm]
0.64,0,-0.017858,0,0,1.5259,20,9.9894
3.14,0.000451,0.049145,-7.7003e-05,0,0,0,0
5.64,0.00067,0.18471,-0.00021302,0,0,0,0
8.14,0.000869,0.27529,0.00012099,0,0,0,0
10.64,0.001004,0.37128,1.6e-05,0,0,0,0
13.14,0.001495,0.46543,0.00035694,0,0,0,0
15.64,0.001907,0.55814,-2.6e-05,0,0,0,0
18.14,0.001996,0.65058,-1.3e-05,0,0,0,0
20.64,0.002145,0.74914,0.00012899,0,0,0,0
23.14,0.002549,0.85129,0.00026197,0,0,0,0
25.64,0.00344,0.95542,5.5998e-05,0,0,0,0
28.14,0.003602,1.0597,-0.00014601,0,0,0,0
30.64,0.003661,1.1619,-5.6002e-05,0,0,0,0
33.14,0.004373,1.2671,0.00014899,0,0,0,0
35.64,0.00528,1.3676,7.2997e-05,0,0,0,0
38.14,0.005234,1.4739,-7.6003e-05,0,0,0,0
40.64,0.005237,1.5761,-0.00010301,0,0,0,0
43.14,0.005813,1.6814,0.00017498,0,0,0,0
45.64,0.007432,1.783,0.00043391,0,0,0,0
48.14,0.007339,1.8847,0.00011299,0,0,0,0
50.64,0.006873,1.9857,-1.3e-05,0,0,0,0
53.14,0.007455,2.0904,0.00022797,0,0,0,0
55.64,0.009134,2.1933,0.00027096,0,0,0,0
58.14,0.009488,2.2951,3.2999e-05,0,0,0,0
60.64,0.008899,2.3957,0.00016599,0,0,0,0
63.14,0.00914,2.4977,0.00010899,0,0,0,0
65.64,0.011196,2.6009,0.00034394,0,0,0,0
68.14,0.011276,2.7026,0.00018198,0,0,0,0
70.64,0.010832,2.8044,7.2997e-05,0,0,0,0
73.14,0.011097,2.9026,0.00029796,0,0,0,0
75.64,0.013113,3.0051,0.00032395,0,0,0,0
78.14,0.013669,3.1059,0.00026496,0,0,0,0
80.64,0.0126,3.2077,-3.6001e-05,0,0,0,0
83.14,0.01304,3.3076,0.00030095,0,0,0,0
85.64,0.015043,3.4064,0.00050687,0,0,0,0
88.14,0.016013,3.5047,0.00057883,0,0,0,0
90.64,0.014838,3.6036,0.00023197,0,0,0,0
93.14,0.015245,3.7016,0.0004399,0,0,0,0
95.64,0.017367,3.8021,0.00069876,0,0,0,0
98.14,0.018344,3.8997,0.00082366,0,0,0,0
100.64,0.017235,3.9983,0.0004569,0,0,0,0
103.14,0.017685,4.0959,0.0004499,0,0,0,0
105.64,0.019827,4.1934,0.00076771,0,0,0,0
108.14,0.020671,4.292,0.00079468,0,0,0,0
110.64,0.020029,4.3896,0.00056284,0,0,0,0
113.14,0.020261,4.4863,0.00076171,0,0,0,0
115.64,0.022512,4.5844,0.00082766,0,0,0,0
118.14,0.023406,4.6771,0.0011254,0,0,0,0
120.64,0.022975,4.7737,0.00079468,0,0,0,0
123.14,0.023439,4.8687,0.00076071,0,0,0,0
125.64,0.025524,4.9644,0.0010255,0,0,0,0
128.14,0.026716,5.059,0.0011254,0,0,0,0
130.64,0.026981,5.1521,0.00076171,0,0,0,0
133.14,0.027709,5.2461,0.00079468,0,0,0,0
135.64,0.02953,5.3396,0.0010255,0,0,0,0
138.14,0.030888,5.4326,0.0014889,0,0,0,0
140.64,0.031881,5.5271,0.0010924,0,0,0,0
143.14,0.033304,5.6184,0.0012243,0,0,0,0
145.64,0.034761,5.709,0.0015548,0,0,0,0
148.14,0.036284,5.7976,0.0022155,0,0,0,0
150.64,0.038469,5.8861,0.0017535,0,0,0,0
153.14,0.041184,5.9733,0.0017864,0,0,0,0
155.64,0.04231,6.0606,0.0020838,0,0,0,0
158.14,0.043899,6.1451,0.0028769,0,0,0,0
160.64,0.047243,6.2309,0.0026784,0,0,0,0
163.14,0.051117,6.3113,0.0026126,0,0,0,0
165.64,0.052971,6.3921,0.0032397,0,0,0,0
168.14,0.05509,6.4756,0.0039323,0,0,0,0
170.64,0.05936,6.5537,0.0039661,0,0,0,0
173.14,0.063366,6.6309,0.0038008,0,0,0,0
175.64,0.067173,6.7076,0.004461,0,0,0,0
178.14,0.071577,6.7819,0.0055804,0,0,0,0
180.64,0.075517,6.8587,0.0059095,0,0,0,0
183.14,0.078861,6.9307,0.0054163,0,0,0,0
185.64,0.08429,7.0036,0.0060089,0,0,0,0
188.14,0.090316,7.0724,0.0077191,0,0,0,0
190.64,0.094752,7.1421,0.0079166,0,0,0,0
193.14,0.099785,7.2103,0.0071613,0,0,0,0
195.64,0.10525,7.2767,0.0079176,0,0,0,0
198.14,0.10969,7.3424,0.0095582,0,0,0,0
200.64,0.11584,7.4086,0.009985,0,0,0,0
203.14,0.12283,7.472,0.0093957,0,0,0,0
205.64,0.12813,7.5344,0.0097572,0,0,0,0
208.14,0.13445,7.5964,0.011559,0,0,0,0
210.64,0.14087,7.6573,0.012182,0,0,0,0
213.14,0.14607,7.7177,0.011463,0,0,0,0
215.64,0.15349,7.7771,0.012019,0,0,0,0
218.14,0.161,7.8364,0.013686,0,0,0,0
220.64,0.16739,7.8951,0.014631,0,0,0,0
223.14,0.176,7.9494,0.01398,0,0,0,0
225.64,0.18269,8.0069,0.014177,0,0,0,0
228.14,0.18891,8.0619,0.016197,0,0,0,0
230.64,0.19733,8.116,0.017109,0,0,0,0
233.14,0.20448,8.1697,0.016621,0,0,0,0
235.64,0.21206,8.2213,0.016948,0,0,0,0
238.14,0.22123,8.2721,0.018539,0,0,0,0
240.64,0.22875,8.3224,0.019449,0,0,0,0
243.14,0.23769,8.3721,0.019483,0,0,0,0
245.64,0.2457,8.4219,0.019612,0,0,0,0
248.14,0.25272,8.4696,0.020879,0,0,0,0
250.64,0.26215,8.5164,0.022109,0,0,0,0
253.14,0.27036,8.5634,0.022272,0,0,0,0
255.64,0.27924,8.6097,0.022823,0,0,0,0
258.14,0.28934,8.6543,0.023728,0,0,0,0
260.64,0.29798,8.6991,0.024924,0,0,0,0
263.14,0.30811,8.7434,0.025377,0,0,0,0
265.64,0.31705,8.7866,0.025895,0,0,0,0
268.14,0.32553,8.8277,0.026799,0,0,0,0
270.64,0.33569,8.8706,0.027958,0,0,0,0
273.14,0.34433,8.9119,0.028698,0,0,0,0
275.64,0.3545,8.952,0.029312,0,0,0,0
278.14,0.3648,8.9923,0.030309,0,0,0,0
280.64,0.37433,9.0313,0.031272,0,0,0,0
283.14,0.38566,9.0691,0.032074,0,0,0,0
285.64,0.39522,9.1066,0.03307,0,0,0,0
288.14,0.40625,9.1441,0.034193,0,0,0,0
290.64,0.41638,9.1809,0.035025,0,0,0,0
293.14,0.42569,9.2169,0.03608,0,0,0,0
295.64,0.43694,9.2521,0.036657,0,0,0,0
298.14,0.44648,9.2874,0.037903,0,0,0,0
300.64,0.45807,9.3211,0.038987,0,0,0,0
303.14,0.46866,9.3549,0.040036,0,0,0,0
305.64,0.47952,9.3886,0.040926,0,0,0,0
308.14,0.49141,9.4209,0.042071,0,0,0,0
310.64,0.50167,9.4521,0.043437,0,0,0,0
313.14,0.51409,9.4827,0.044227,0,0,0,0
315.64,0.52492,9.5146,0.044923,0,0,0,0
318.14,0.53657,9.5441,0.046283,0,0,0,0
320.64,0.54793,9.5741,0.047833,0,0,0,0
323.14,0.55859,9.6039,0.04843,0,0,0,0
325.64,0.57074,9.6323,0.049377,0,0,0,0
328.14,0.58117,9.6604,0.050762,0,0,0,0
330.64,0.59389,9.6886,0.052397,0,0,0,0
333.14,0.60525,9.7157,0.053275,0,0,0,0
335.64,0.61743,9.7423,0.054247,0,0,0,0
338.14,0.63015,9.7691,0.055878,0,0,0,0
340.64,0.64154,9.7949,0.057411,0,0,0,0
343.14,0.65521,9.8197,0.058442,0,0,0,0
345.64,0.6664,9.8443,0.059507,0,0,0,0
348.14,0.67995,9.868,0.060941,0,0,0,0
350.64,0.69147,9.8926,0.062433,0,0,0,0
353.14,0.70481,9.9166,0.063586,0,0,0,0
355.64,0.7171,9.9396,0.064921,0,0,0,0
358.14,0.72945,9.9617,0.066566,0,0,0,0
360.64,0.74246,9.9843,0.068019,0,0,0,0
363.14,0.75402,10.005,0.069445,0,0,0,0
365.64,0.76786,10.026,0.070987,0,0,0,0
368.14,0.77988,10.047,0.072621,0,0,0,0
370.64,0.79372,10.065,0.074038,0,0,0,0
373.14,0.80597,10.086,0.075607,0,0,0,0
375.64,0.81984,10.104,0.076989,0,0,0,0
378.14,0.83272,10.124,0.078703,0,0,0,0
380.64,0.84607,10.141,0.080446,0,0,0,0
383.14,0.85977,10.159,0.082251,0,0,0,0
385.64,0.87272,10.176,0.083624,0,0,0,0
388.14,0.88752,10.193,0.085361,0,0,0,0
390.64,0.8998,10.21,0.087396,0,0,0,0
393.14,0.91494,10.226,0.089213,0,0,0,0
395.64,0.92752,10.242,0.090849,0,0,0,0
398.14,0.94262,10.257,0.092818,0,0,0,0
400.64,0.95603,10.272,0.09481,0,0,0,0
403.14,0.97056,10.286,0.097032,0,0,0,0
405.64,0.98437,10.299,0.098746,0,0,0,0
408.14,0.99864,10.312,0.10094,0,0,0,0
410.64,1.013,10.325,0.10294,0,0,0,0
413.14,1.027,10.337,0.10542,0,0,0,0
415.64,1.0419,10.349,0.10762,0,0,0,0
418.14,1.0557,10.36,0.10973,0,0,0,0
420.63,1.0709,10.371,0.11219,0,0,0,0
423.14,1.0846,10.381,0.11453,0,0,0,0
425.64,1.1002,10.391,0.11701,0,0,0,0
428.14,1.1135,10.4,0.11936,0,0,0,0
430.64,1.1295,10.408,0.12166,0,0,0,0
433.14,1.1431,10.417,0.12456,0,0,0,0
435.63,1.159,10.425,0.12724,0,0,0,0
438.13,1.1733,10.432,0.12987,0,0,0,0
440.64,1.1892,10.438,0.13234,0,0,0,0
443.14,1.2035,10.445,0.13549,0,0,0,0
445.63,1.2196,10.451,0.13862,0,0,0,0
448.13,1.2347,10.455,0.14187,0,0,0,0
450.63,1.2506,10.46,0.14451,0,0,0,0
453.14,1.2661,10.464,0.14789,0,0,0,0
455.64,1.282,10.467,0.15131,0,0,0,0
458.14,1.298,10.469,0.15455,0,0,0,0
460.63,1.3136,10.471,0.15776,0,0,0,0
463.13,1.3298,10.472,0.16148,0,0,0,0
465.64,1.3457,10.473,0.16528,0,0,0,0
468.13,1.362,10.473,0.16896,0,0,0,0
470.63,1.378,10.471,0.17286,0,0,0,0
473.13,1.3944,10.47,0.1764,0,0,0,0
475.63,1.4104,10.468,0.18086,0,0,0,0
478.13,1.4274,10.465,0.18505,0,0,0,0
480.63,1.4437,10.46,0.18923,0,0,0,0
483.13,1.4607,10.455,0.19367,0,0,0,0
485.63,1.4772,10.449,0.19846,0,0,0,0
488.13,1.4942,10.442,0.20342,0,0,0,0
490.63,1.5111,10.435,0.20814,0,0,0,0
493.13,1.5284,10.426,0.21329,0,0,0,0
495.63,1.5456,10.416,0.21866,0,0,0,0
498.13,1.5626,10.405,0.22397,0,0,0,0
500.63,1.58,10.393,0.22949,0,0,0,0
503.13,1.5968,10.38,0.23525,0,0,0,0
505.63,1.6143,10.365,0.24123,0,0,0,0
508.13,1.6313,10.35,0.24728,0,0,0,0
510.63,1.6491,10.334,0.25342,0,0,0,0
513.13,1.6662,10.317,0.25975,0,0,0,0
515.63,1.6841,10.297,0.26597,0,0,0,0
518.13,1.7012,10.277,0.27286,0,0,0,0
520.63,1.7196,10.256,0.27955,0,0,0,0
523.13,1.7368,10.232,0.28635,0,0,0,0
525.63,1.7557,10.208,0.29381,0,0,0,0
528.13,1.7728,10.182,0.30125,0,0,0,0
530.63,1.7921,10.154,0.3087,0,0,0,0
533.13,1.8097,10.124,0.31707,0,0,0,0
535.63,1.8293,10.093,0.32458,0,0,0,0
538.13,1.8469,10.059,0.33272,0,0,0,0
540.63,1.8669,10.022,0.34092,0,0,0,0
543.13,1.885,9.9846,0.34926,0,0,0,0
545.63,1.9044,9.9434,0.35772,0,0,0,0
548.13,1.9234,9.9007,0.3659,0,0,0,0
550.63,1.9427,9.8549,0.37486,0,0,0,0
553.13,1.9625,9.8059,0.38421,0,0,0,0
555.63,1.9813,9.7534,0.39357,0,0,0,0
558.13,2.0017,9.698,0.40348,0,0,0,0
560.63,2.0208,9.6384,0.41336,0,0,0,0
563.13,2.042,9.5731,0.42359,0,0,0,0
565.63,2.0613,9.5041,0.43405,0,0,0,0
568.13,2.0828,9.4291,0.44508,0,0,0,0
570.63,2.1034,9.3489,0.4558,0,0,0,0
573.13,2.1247,9.2591,0.46718,0,0,0,0
575.63,2.1471,9.1633,0.47906,0,0,0,0
578.13,2.1687,9.0594,0.49088,0,0,0,0
580.63,2.1938,8.937,0.50375,0,0,0,0
581.63,2.2134,8.8658,0.51698,0,0,0,0

File: NT6_90_2.csv
Time[s],Displacement[mm],Force[kN],AxStrain_1,AxStrain_2,Thickness[mm],OuterWidth[mm],InnerWidth[mm]
0.56,0,-0.017602,0,0,1.5304,20,10.016
3.06,0.000279,0.048145,-8.6004e-05,0,0,0,0
5.55,0.000746,0.18085,-5.6002e-05,0,0,0,0
8.05,0.000876,0.27015,-0.00017502,0,0,0,0
10.55,0.001205,0.36171,0.00010799,0,0,0,0
13.05,0.001548,0.45358,5.3999e-05,0,0,0,0
15.55,0.001976,0.54585,-9.6005e-05,0,0,0,0
18.05,0.002053,0.63872,-0.00025203,0,0,0,0
20.55,0.002506,0.73657,0.00010299,0,0,0,0
23.05,0.002784,0.83486,9.5995e-05,0,0,0,0
25.55,0.003731,0.93628,0.00023797,0,0,0,0
28.05,0.00388,1.0377,7e-06,0,0,0,0
30.55,0.003959,1.1414,0.00012899,0,0,0,0
33.05,0.004453,1.2447,0.00026496,0,0,0,0
35.55,0.005489,1.3449,0.0004439,0,0,0,0
38.05,0.005846,1.4494,0.00029496,0,0,0,0
40.55,0.005625,1.5476,0.00024197,0,0,0,0
43.05,0.005916,1.6564,0.00046989,0,0,0,0
45.55,0.006998,1.7521,0.00075771,0,0,0,0
48.05,0.007882,1.8561,0.00038693,0,0,0,0
50.55,0.007495,1.9553,0.00037393,0,0,0,0
53.05,0.007727,2.0544,0.00053586,0,0,0,0
55.55,0.009422,2.1544,0.00075472,0,0,0,0
58.05,0.01018,2.2553,0.00068477,0,0,0,0
60.55,0.009637,2.358,0.0004569,0,0,0,0
63.05,0.009488,2.4571,0.0004469,0,0,0,0
65.56,0.010733,2.5596,0.00072474,0,0,0,0
68.06,0.012011,2.6596,0.00081767,0,0,0,0
70.56,0.011991,2.7596,0.00056584,0,0,0,0
73.06,0.011633,2.859,0.00049988,0,0,0,0
75.56,0.012345,2.9614,0.00064879,0,0,0,0
78.05,0.014166,3.0624,0.00087362,0,0,0,0
80.56,0.014143,3.1606,0.00072774,0,0,0,0
83.06,0.013428,3.2634,0.00047689,0,0,0,0
85.55,0.014375,3.3591,0.00073473,0,0,0,0
88.06,0.016086,3.4616,0.00074772,0,0,0,0
90.56,0.016334,3.5587,0.00053286,0,0,0,0
93.05,0.015547,3.6611,0.00025797,0,0,0,0
95.55,0.016258,3.7576,0.00031495,0,0,0,0
98.06,0.018165,3.8554,0.00061281,0,0,0,0
100.56,0.018705,3.9534,0.00050287,0,0,0,0
103.05,0.01797,4.0526,0.0004469,0,0,0,0
105.55,0.018781,4.1526,0.00040092,0,0,0,0
108.05,0.020612,4.2511,0.00086363,0,0,0,0
110.55,0.021413,4.3509,0.00069476,0,0,0,0
113.05,0.02079,4.4473,0.00052986,0,0,0,0
115.55,0.021254,4.5436,0.00076071,0,0,0,0
118.05,0.023174,4.6424,0.0011913,0,0,0,0
120.55,0.024101,4.7377,0.0011583,0,0,0,0
123.05,0.024101,4.834,0.00072774,0,0,0,0
125.55,0.024432,4.93,0.00095954,0,0,0,0
128.05,0.026154,5.0251,0.0012572,0,0,0,0
130.55,0.027544,5.1197,0.0014889,0,0,0,0
133.05,0.02814,5.2139,0.0013561,0,0,0,0
135.55,0.028835,5.3089,0.0012243,0,0,0,0
138.05,0.030722,5.4039,0.0016536,0,0,0,0
140.55,0.031981,5.4967,0.0019511,0,0,0,0
143.05,0.033272,5.5906,0.0014889,0,0,0,0
145.55,0.034596,5.6839,0.0011913,0,0,0,0
148.05,0.036351,5.7764,0.0015877,0,0,0,0
150.55,0.037576,5.8686,0.0019511,0,0,0,0
153.05,0.03933,5.9606,0.0016876,0,0,0,0
155.55,0.042509,6.0499,0.0016536,0,0,0,0
158.05,0.044065,6.1394,0.0022155,0,0,0,0
160.55,0.045323,6.2239,0.002843,0,0,0,0
163.05,0.048203,6.3111,0.0028759,0,0,0,0
165.55,0.052341,6.3957,0.0027442,0,0,0,0
168.05,0.055023,6.4794,0.0032069,0,0,0,0
170.55,0.057009,6.5611,0.0039651,0,0,0,0
173.05,0.061048,6.6434,0.0040976,0,0,0,0
175.55,0.064756,6.7199,0.0041305,0,0,0,0
178.05,0.068332,6.8007,0.0047238,0,0,0,0
180.55,0.072967,6.876,0.0057773,0,0,0,0
183.05,0.077569,6.9531,0.0062057,0,0,0,0
185.55,0.08088,7.0251,0.0059751,0,0,0,0
188.05,0.085283,7.0981,0.0063379,0,0,0,0
190.55,0.09121,7.1693,0.0076199,0,0,0,0
193.05,0.096275,7.2393,0.0080475,0,0,0,0
195.55,0.10124,7.3101,0.0075554,0,0,0,0
198.05,0.1071,7.3779,0.0079493,0,0,0,0
200.55,0.11154,7.4451,0.0093284,0,0,0,0
203.05,0.11697,7.5099,0.010115,0,0,0,0
205.55,0.12405,7.5751,0.0095899,0,0,0,0
208.05,0.12988,7.6366,0.009885,0,0,0,0
210.55,0.13561,7.7029,0.011392,0,0,0,0
213.05,0.14309,7.7651,0.012275,0,0,0,0
215.55,0.14812,7.8254,0.011948,0,0,0,0
218.05,0.15458,7.8851,0.012243,0,0,0,0
220.55,0.16249,7.9447,0.013648,0,0,0,0
223.05,0.16895,8.0033,0.014595,0,0,0,0
225.55,0.17653,8.0594,0.014561,0,0,0,0
228.05,0.18404,8.1144,0.014628,0,0,0,0
230.55,0.19033,8.1686,0.015965,0,0,0,0
233.05,0.19778,8.223,0.017105,0,0,0,0
235.55,0.20547,8.2751,0.01704,0,0,0,0
238.05,0.21275,8.3279,0.017137,0,0,0,0
240.55,0.22152,8.3774,0.018245,0,0,0,0
243.05,0.22944,8.4297,0.019382,0,0,0,0
245.55,0.23741,8.4786,0.019448,0,0,0,0
248.05,0.24678,8.5289,0.019708,0,0,0,0
250.55,0.2542,8.576,0.020781,0,0,0,0
253.05,0.26258,8.6233,0.021946,0,0,0,0
255.55,0.27109,8.6699,0.02214,0,0,0,0
258.05,0.27913,8.7164,0.022756,0,0,0,0
260.55,0.28916,8.762,0.023564,0,0,0,0
263.05,0.29797,8.8066,0.024502,0,0,0,0
265.55,0.30714,8.8514,0.025212,0,0,0,0
268.05,0.31747,8.8931,0.025729,0,0,0,0
270.55,0.32598,8.9357,0.026438,0,0,0,0
273.05,0.33568,8.9767,0.027502,0,0,0,0
275.55,0.34505,9.0186,0.02837,0,0,0,0
278.05,0.35376,9.0586,0.028949,0,0,0,0
280.55,0.36435,9.0991,0.029657,0,0,0,0
283.05,0.37363,9.1391,0.03062,0,0,0,0
285.55,0.38435,9.178,0.031647,0,0,0,0
288.05,0.39482,9.2153,0.032385,0,0,0,0
290.55,0.40452,9.2526,0.033218,0,0,0,0
293.05,0.41574,9.29,0.034083,0,0,0,0
295.55,0.42524,9.3267,0.035074,0,0,0,0
298.05,0.43594,9.3616,0.036,0,0,0,0
300.55,0.4463,9.3979,0.037022,0,0,0,0
303.05,0.45614,9.4307,0.038011,0,0,0,0
305.55,0.46763,9.4651,0.038744,0,0,0,0
308.05,0.47756,9.4977,0.039763,0,0,0,0
310.55,0.48961,9.5306,0.040878,0,0,0,0
313.05,0.50007,9.5624,0.041832,0,0,0,0
315.55,0.51136,9.5941,0.042688,0,0,0,0
318.05,0.52312,9.6247,0.043768,0,0,0,0
320.55,0.53358,9.6553,0.04472,0,0,0,0
323.05,0.5459,9.6853,0.04589,0,0,0,0
325.55,0.55649,9.7156,0.046744,0,0,0,0
328.05,0.56828,9.7447,0.048042,0,0,0,0
330.55,0.57967,9.7736,0.04924,0,0,0,0
333.05,0.59079,9.8021,0.050059,0,0,0,0
335.55,0.60285,9.8296,0.051034,0,0,0,0
338.05,0.61397,9.8567,0.05245,0,0,0,0
340.55,0.62675,9.8839,0.053707,0,0,0,0
343.05,0.63814,9.9096,0.05471,0,0,0,0
345.55,0.65106,9.9353,0.055962,0,0,0,0
348.05,0.66297,9.96,0.057183,0,0,0,0
350.55,0.67503,9.9851,0.058496,0,0,0,0
353.05,0.68814,10.009,0.059682,0,0,0,0
355.55,0.69969,10.033,0.060866,0,0,0,0
358.05,0.7131,10.056,0.062299,0,0,0,0
360.55,0.72463,10.08,0.063637,0,0,0,0
363.05,0.73774,10.101,0.065125,0,0,0,0
365.55,0.74962,10.124,0.066366,0,0,0,0
368.05,0.7627,10.146,0.067913,0,0,0,0
370.55,0.77532,10.167,0.069553,0,0,0,0
373.05,0.78793,10.188,0.071279,0,0,0,0
375.55,0.80124,10.208,0.072389,0,0,0,0
378.05,0.81369,10.227,0.073838,0,0,0,0
380.55,0.8275,10.247,0.075681,0,0,0,0
383.05,0.83988,10.266,0.077306,0,0,0,0
385.55,0.85402,10.284,0.07896,0,0,0,0
388.05,0.86707,10.302,0.08055,0,0,0,0
390.55,0.88081,10.319,0.082351,0,0,0,0
393.05,0.89405,10.337,0.083905,0,0,0,0
395.55,0.90723,10.354,0.0857,0,0,0,0
398.05,0.92173,10.37,0.087582,0,0,0,0
400.55,0.93491,10.386,0.089492,0,0,0,0
403.05,0.94951,10.401,0.091215,0,0,0,0
405.55,0.96226,10.416,0.093149,0,0,0,0
408.05,0.97715,10.43,0.09526,0,0,0,0
410.55,0.9905,10.445,0.097455,0,0,0,0
413.05,1.0052,10.458,0.099077,0,0,0,0
415.55,1.0189,10.472,0.10105,0,0,0,0
418.05,1.0337,10.484,0.10321,0,0,0,0
420.55,1.0473,10.497,0.10562,0,0,0,0
423.05,1.062,10.508,0.10762,0,0,0,0
425.55,1.0759,10.519,0.1097,0,0,0,0
428.05,1.09,10.529,0.11171,0,0,0,0
430.55,1.1049,10.539,0.11426,0,0,0,0
433.05,1.1185,10.549,0.11668,0,0,0,0
435.55,1.134,10.559,0.11883,0,0,0,0
438.05,1.1476,10.567,0.12144,0,0,0,0
440.55,1.1632,10.576,0.12411,0,0,0,0
443.05,1.1771,10.584,0.12653,0,0,0,0
445.55,1.1931,10.592,0.1291,0,0,0,0
448.05,1.2073,10.598,0.132,0,0,0,0
450.55,1.2234,10.604,0.13493,0,0,0,0
453.05,1.2378,10.61,0.13808,0,0,0,0
455.55,1.254,10.615,0.14076,0,0,0,0
458.05,1.2687,10.62,0.14377,0,0,0,0
460.55,1.285,10.624,0.14687,0,0,0,0
463.05,1.2995,10.628,0.15007,0,0,0,0
465.55,1.3164,10.63,0.15376,0,0,0,0
468.05,1.3312,10.632,0.15702,0,0,0,0
470.55,1.3478,10.634,0.1603,0,0,0,0
473.05,1.3633,10.635,0.16388,0,0,0,0
475.55,1.3798,10.635,0.16756,0,0,0,0
478.05,1.3954,10.635,0.17172,0,0,0,0
480.55,1.4119,10.634,0.17576,0,0,0,0
483.05,1.4281,10.631,0.17945,0,0,0,0
485.55,1.4447,10.628,0.18392,0,0,0,0
488.05,1.4611,10.626,0.1881,0,0,0,0
490.55,1.478,10.621,0.19265,0,0,0,0
493.05,1.4945,10.615,0.19712,0,0,0,0
495.55,1.5107,10.61,0.20181,0,0,0,0
498.05,1.528,10.603,0.20645,0,0,0,0
500.55,1.5447,10.594,0.21156,0,0,0,0
503.05,1.5618,10.586,0.21672,0,0,0,0
505.55,1.5789,10.576,0.22218,0,0,0,0
508.05,1.5956,10.565,0.22702,0,0,0,0
510.55,1.6132,10.554,0.2327,0,0,0,0
513.05,1.63,10.541,0.2382,0,0,0,0
515.55,1.6477,10.527,0.24439,0,0,0,0
518.05,1.6645,10.511,0.25014,0,0,0,0
520.55,1.6824,10.496,0.25649,0,0,0,0
523.05,1.6992,10.479,0.26245,0,0,0,0
525.55,1.7176,10.46,0.26917,0,0,0,0
528.05,1.7346,10.441,0.27578,0,0,0,0
530.55,1.7532,10.419,0.28282,0,0,0,0
533.05,1.7703,10.397,0.28986,0,0,0,0
535.55,1.7891,10.373,0.29675,0,0,0,0
538.05,1.8065,10.348,0.30456,0,0,0,0
540.55,1.8257,10.321,0.31206,0,0,0,0
543.05,1.8429,10.291,0.3194,0,0,0,0
545.55,1.8623,10.262,0.32715,0,0,0,0
548.05,1.8799,10.229,0.33525,0,0,0,0
550.55,1.8992,10.195,0.34336,0,0,0,0
553.05,1.9176,10.158,0.3517,0,0,0,0
555.55,1.9368,10.121,0.35992,0,0,0,0
558.05,1.9557,10.08,0.369,0,0,0,0
560.55,1.975,10.036,0.37812,0,0,0,0
563.05,1.9945,9.99,0.38762,0,0,0,0
565.55,2.0138,9.9394,0.39667,0,0,0,0
568.05,2.034,9.8863,0.40751,0,0,0,0
570.55,2.0528,9.8306,0.41724,0,0,0,0
573.05,2.0736,9.7694,0.42774,0,0,0,0
575.55,2.093,9.7069,0.43784,0,0,0,0
578.05,2.1139,9.6343,0.44889,0,0,0,0
580.55,2.1343,9.559,0.45934,0,0,0,0
583.05,2.1559,9.4693,0.4726,0,0,0,0
584.05,2.166,9.4298,0.47797,0,0,0,0