Folder: ethz/polyN_optimization/DP600_results/DATA (part 9)

File: NT20_90_2.csv
Time[s],Displacement[mm],Force[kN],AxStrain_1,AxStrain_2,Thickness[mm],OuterWidth[mm],InnerWidth[mm]
0.56,0,-0.018277,0,0,1.5294,20,20.451
3.56,0.000972,0.085149,3.1e-05,0,0,0,0
6.56,0.001313,0.20772,6.2998e-05,0,0,0,0
9.56,0.001504,0.31844,-4.2001e-05,0,0,0,0
12.56,0.001865,0.42858,1.1e-05,0,0,0,0
15.56,0.002483,0.53786,-9.9005e-05,0,0,0,0
18.56,0.002645,0.64772,2e-05,0,0,0,0
21.56,0.003183,0.76558,0.00013199,0,0,0,0
24.56,0.004278,0.88543,0.00020498,0,0,0,0
27.56,0.004437,1.0041,-3.3001e-05,0,0,0,0
30.56,0.004338,1.1249,0.00013899,0,0,0,0
33.56,0.005422,1.2486,0.00025797,0,0,0,0
36.56,0.006792,1.3704,0.00016899,0,0,0,0
39.56,0.006359,1.4931,0.00033794,0,0,0,0
42.56,0.006632,1.613,0.00027096,0,0,0,0
45.56,0.008492,1.7336,7.2997e-05,0,0,0,0
48.56,0.008539,1.8537,0.00024797,0,0,0,0
51.56,0.00816,1.9761,0.00042991,0,0,0,0
54.56,0.009479,2.0936,0.00037393,0,0,0,0
57.56,0.011092,2.2131,0.00022497,0,0,0,0
60.56,0.010314,2.3351,0.00057883,0,0,0,0
63.56,0.010852,2.4519,0.00042091,0,0,0,0
66.56,0.012988,2.5717,0.00051287,0,0,0,0
69.56,0.0126,2.6934,0.00038093,0,0,0,0
72.56,0.012121,2.8113,0.00050987,0,0,0,0
75.56,0.014094,2.9307,0.00028496,0,0,0,0
78.56,0.015362,3.0509,0.00062181,0,0,0,0
81.56,0.01405,3.1686,0.00057883,0,0,0,0
84.56,0.015418,3.2864,0.0004399,0,0,0,0
87.56,0.017458,3.4054,0.00059882,0,0,0,0
90.56,0.017124,3.5203,0.00070475,0,0,0,0
93.56,0.016855,3.6381,0.00073473,0,0,0,0
96.56,0.01921,3.7561,0.00067477,0,0,0,0
99.56,0.020021,3.8713,0.00071774,0,0,0,0
102.56,0.019303,3.9877,0.00079069,0,0,0,0
105.56,0.020982,4.1049,0.0008966,0,0,0,0
108.56,0.02283,4.2183,0.00097652,0,0,0,0
111.56,0.022726,4.3347,0.00086063,0,0,0,0
114.56,0.023128,4.4511,0.00095954,0,0,0,0
117.56,0.025579,4.5633,0.0011913,0,0,0,0
120.56,0.026209,4.6754,0.0013231,0,0,0,0
123.56,0.026243,4.7881,0.0011583,0,0,0,0
126.56,0.028461,4.8987,0.0011254,0,0,0,0
129.56,0.029918,5.0081,0.0015548,0,0,0,0
132.56,0.031077,5.1191,0.0014559,0,0,0,0
135.56,0.032732,5.2274,0.0014559,0,0,0,0
138.56,0.03472,5.3341,0.0017205,0,0,0,0
141.56,0.036574,5.4427,0.0021826,0,0,0,0
144.56,0.03992,5.5483,0.0020509,0,0,0,0
147.56,0.041644,5.6534,0.0023482,0,0,0,0
150.56,0.043866,5.7544,0.003174,0,0,0,0
153.56,0.048042,5.858,0.0030743,0,0,0,0
156.56,0.051623,5.9591,0.0031411,0,0,0,0
159.56,0.053745,6.0566,0.0040647,0,0,0,0
162.56,0.05868,6.1523,0.0042948,0,0,0,0
165.56,0.063383,6.2451,0.0040976,0,0,0,0
168.56,0.067689,6.3359,0.0050204,0,0,0,0
171.56,0.073649,6.425,0.0060079,0,0,0,0
174.56,0.077624,6.5119,0.0058429,0,0,0,0
177.56,0.083587,6.5966,0.0062385,0,0,0,0
180.56,0.09094,6.679,0.0077509,0,0,0,0
183.56,0.096506,6.7599,0.0081775,0,0,0,0
186.56,0.10393,6.8383,0.0077509,0,0,0,0
189.56,0.10963,6.9154,0.0092947,0,0,0,0
192.56,0.11675,6.9907,0.010606,0,0,0,0
195.56,0.12566,7.064,0.0099503,0,0,0,0
198.56,0.13239,7.1354,0.010737,0,0,0,0
201.56,0.1419,7.207,0.012734,0,0,0,0
204.56,0.14839,7.2756,0.012602,0,0,0,0
207.56,0.15701,7.3431,0.012504,0,0,0,0
210.56,0.16628,7.4094,0.014235,0,0,0,0
213.56,0.17456,7.4733,0.015051,0,0,0,0
216.56,0.18532,7.5374,0.014823,0,0,0,0
219.56,0.19334,7.602,0.015997,0,0,0,0
222.56,0.20377,7.663,0.017625,0,0,0,0
225.56,0.21232,7.7231,0.01756,0,0,0,0
228.56,0.22278,7.7827,0.018016,0,0,0,0
231.56,0.23289,7.8397,0.019738,0,0,0,0
234.56,0.24315,7.8961,0.02016,0,0,0,0
237.56,0.25415,7.9521,0.020583,0,0,0,0
240.56,0.26366,8.0054,0.021977,0,0,0,0
243.56,0.27479,8.0589,0.022916,0,0,0,0
246.56,0.28453,8.1114,0.023434,0,0,0,0
249.56,0.29648,8.1624,0.024374,0,0,0,0
252.56,0.30678,8.2119,0.025567,0,0,0,0
255.56,0.3194,8.2624,0.026084,0,0,0,0
258.56,0.33036,8.3107,0.027019,0,0,0,0
261.55,0.34272,8.3581,0.028178,0,0,0,0
264.56,0.35378,8.4059,0.02879,0,0,0,0
267.55,0.3659,8.4507,0.029915,0,0,0,0
270.56,0.37736,8.4959,0.031103,0,0,0,0
273.55,0.38941,8.5401,0.032064,0,0,0,0
276.56,0.40193,8.5831,0.032577,0,0,0,0
279.55,0.41448,8.6251,0.033762,0,0,0,0
282.55,0.4274,8.6679,0.035043,0,0,0,0
285.56,0.44025,8.7077,0.035905,0,0,0,0
288.55,0.4532,8.7486,0.036926,0,0,0,0
291.55,0.46588,8.7886,0.038075,0,0,0,0
294.56,0.47887,8.8269,0.039318,0,0,0,0
297.55,0.49162,8.8649,0.04008,0,0,0,0
300.55,0.505,8.9023,0.041416,0,0,0,0
303.55,0.51838,8.9367,0.042814,0,0,0,0
306.55,0.53216,8.9734,0.043828,0,0,0,0
309.55,0.54558,9.0087,0.044843,0,0,0,0
312.55,0.56012,9.0424,0.046299,0,0,0,0
315.55,0.57356,9.0764,0.047531,0,0,0,0
318.55,0.58757,9.1094,0.048225,0,0,0,0
321.55,0.60161,9.141,0.049614,0,0,0,0
324.55,0.61526,9.1737,0.051063,0,0,0,0
327.55,0.6293,9.2047,0.05232,0,0,0,0
330.55,0.64314,9.2354,0.053293,0,0,0,0
333.55,0.65788,9.2667,0.054643,0,0,0,0
336.55,0.67205,9.2969,0.056208,0,0,0,0
339.55,0.68748,9.326,0.05721,0,0,0,0
342.55,0.70159,9.3556,0.058616,0,0,0,0
345.55,0.71745,9.3836,0.060209,0,0,0,0
348.55,0.73163,9.4087,0.061672,0,0,0,0
351.55,0.74769,9.4367,0.062699,0,0,0,0
354.55,0.76176,9.4629,0.064221,0,0,0,0
357.55,0.77782,9.4887,0.065802,0,0,0,0
360.55,0.7915,9.5137,0.067042,0,0,0,0
363.55,0.80783,9.5387,0.068466,0,0,0,0
366.55,0.82187,9.5641,0.070134,0,0,0,0
369.55,0.83817,9.5877,0.07146,0,0,0,0
372.55,0.85277,9.6107,0.072846,0,0,0,0
375.55,0.8687,9.634,0.074723,0,0,0,0
378.55,0.88413,9.6557,0.075982,0,0,0,0
381.55,0.9,9.6787,0.077576,0,0,0,0
384.55,0.91612,9.7004,0.079137,0,0,0,0
387.55,0.93182,9.7211,0.080942,0,0,0,0
390.55,0.94828,9.7417,0.081889,0,0,0,0
393.55,0.96364,9.7624,0.083838,0,0,0,0
396.55,0.9809,9.782,0.085544,0,0,0,0
399.55,0.99613,9.8009,0.087122,0,0,0,0
402.55,1.0137,9.82,0.088578,0,0,0,0
405.55,1.0288,9.839,0.090335,0,0,0,0
408.55,1.0463,9.8566,0.092147,0,0,0,0
411.55,1.0624,9.875,0.093987,0,0,0,0
414.55,1.0789,9.892,0.095404,0,0,0,0
417.55,1.0956,9.9086,0.097298,0,0,0,0
420.55,1.1117,9.925,0.099279,0,0,0,0
423.55,1.129,9.941,0.10105,0,0,0,0
426.55,1.1449,9.9566,0.10272,0,0,0,0
429.55,1.1627,9.9716,0.10463,0,0,0,0
432.55,1.1783,9.9857,0.10654,0,0,0,0
435.55,1.1967,10.001,0.10838,0,0,0,0
438.55,1.2128,10.015,0.11028,0,0,0,0
441.55,1.2304,10.028,0.11233,0,0,0,0
444.55,1.2473,10.041,0.11431,0,0,0,0
447.55,1.2646,10.054,0.11646,0,0,0,0
450.55,1.2829,10.067,0.11876,0,0,0,0
453.55,1.2992,10.079,0.12058,0,0,0,0
456.55,1.318,10.09,0.12246,0,0,0,0
459.55,1.3345,10.102,0.12494,0,0,0,0
462.55,1.3532,10.113,0.12736,0,0,0,0
465.55,1.3703,10.123,0.12923,0,0,0,0
468.55,1.3882,10.134,0.13126,0,0,0,0
471.55,1.4062,10.144,0.13396,0,0,0,0
474.55,1.4236,10.153,0.1361,0,0,0,0
477.55,1.4423,10.162,0.13847,0,0,0,0
480.55,1.4595,10.171,0.14094,0,0,0,0
483.55,1.4785,10.179,0.14356,0,0,0,0
486.55,1.4963,10.188,0.1459,0,0,0,0
489.55,1.5146,10.195,0.14856,0,0,0,0
492.55,1.5334,10.203,0.15119,0,0,0,0
495.55,1.551,10.209,0.15355,0,0,0,0
498.55,1.5701,10.216,0.15618,0,0,0,0
501.55,1.5876,10.222,0.15918,0,0,0,0
504.55,1.6067,10.227,0.16197,0,0,0,0
507.55,1.6249,10.233,0.16478,0,0,0,0
510.55,1.6432,10.237,0.1675,0,0,0,0
513.55,1.6624,10.242,0.1705,0,0,0,0
516.55,1.6801,10.247,0.17354,0,0,0,0
519.55,1.6999,10.251,0.17668,0,0,0,0
522.55,1.7182,10.255,0.17964,0,0,0,0
525.55,1.7376,10.258,0.18249,0,0,0,0
528.55,1.7569,10.261,0.18535,0,0,0,0
531.55,1.7755,10.263,0.18867,0,0,0,0
534.55,1.7958,10.265,0.19207,0,0,0,0
537.55,1.8142,10.267,0.19537,0,0,0,0
540.55,1.8343,10.268,0.19882,0,0,0,0
543.55,1.8538,10.269,0.20235,0,0,0,0
546.55,1.8729,10.269,0.20594,0,0,0,0
549.55,1.8931,10.269,0.20992,0,0,0,0
552.55,1.9116,10.268,0.21377,0,0,0,0
555.55,1.932,10.268,0.2177,0,0,0,0
558.55,1.9517,10.266,0.22136,0,0,0,0
561.55,1.9711,10.264,0.22502,0,0,0,0
564.55,1.9919,10.262,0.22919,0,0,0,0
567.55,2.011,10.259,0.23342,0,0,0,0
570.55,2.0316,10.256,0.23737,0,0,0,0
573.55,2.0514,10.252,0.24164,0,0,0,0
576.55,2.0711,10.248,0.24618,0,0,0,0
579.55,2.092,10.242,0.25057,0,0,0,0
582.55,2.1109,10.238,0.25525,0,0,0,0
585.55,2.1317,10.232,0.25988,0,0,0,0
588.55,2.1522,10.226,0.26465,0,0,0,0
591.55,2.1719,10.219,0.26964,0,0,0,0
594.55,2.193,10.212,0.27476,0,0,0,0
597.55,2.2126,10.205,0.28018,0,0,0,0
600.55,2.2336,10.196,0.28515,0,0,0,0
603.55,2.2543,10.187,0.29093,0,0,0,0
606.55,2.2742,10.177,0.29585,0,0,0,0
609.55,2.2957,10.167,0.3014,0,0,0,0
612.55,2.3158,10.156,0.30724,0,0,0,0
615.55,2.3362,10.145,0.31323,0,0,0,0
618.55,2.3577,10.133,0.31943,0,0,0,0
621.55,2.3772,10.12,0.3256,0,0,0,0
624.55,2.3991,10.107,0.33201,0,0,0,0
627.55,2.4195,10.091,0.33823,0,0,0,0
630.55,2.4397,10.077,0.34489,0,0,0,0
633.55,2.4617,10.061,0.35181,0,0,0,0
636.55,2.4814,10.045,0.35864,0,0,0,0
639.55,2.5027,10.028,0.36542,0,0,0,0
642.55,2.5243,10.01,0.37327,0,0,0,0
645.55,2.5443,9.9906,0.38036,0,0,0,0
648.55,2.5664,9.9699,0.38798,0,0,0,0
651.55,2.5872,9.9483,0.39514,0,0,0,0
654.55,2.6082,9.9256,0.40301,0,0,0,0
657.55,2.6303,9.9019,0.41196,0,0,0,0
660.55,2.6506,9.8773,0.42107,0,0,0,0
663.55,2.6726,9.8509,0.43144,0,0,0,0
666.55,2.6942,9.8239,0.44157,0,0,0,0
669.55,2.7151,9.7946,-Inf,0,0,0,0
672.55,2.7378,9.7639,-Inf,0,0,0,0
675.55,2.7594,9.7311,-Inf,0,0,0,0
678.55,2.7806,9.6961,-Inf,0,0,0,0
681.55,2.8039,9.6579,-Inf,0,0,0,0
684.55,2.8249,9.6183,-Inf,0,0,0,0
687.55,2.8472,9.5761,-Inf,0,0,0,0
690.55,2.8705,9.5304,-Inf,0,0,0,0
693.55,2.892,9.4823,-Inf,0,0,0,0
696.55,2.9151,9.4281,-Inf,0,0,0,0
699.55,2.9384,9.3669,-Inf,0,0,0,0
702.55,2.9812,9.266,-Inf,0,0,0,0