Folder: ethz/polyN_optimization/DP600_results/DATA (part 4)

File: NT6_00_3.csv
Time[s],Displacement[mm],Force[kN],AxStrain_1,AxStrain_2,Thickness[mm],OuterWidth[mm],InnerWidth[mm]
0.59,0,-0.016967,0,0,1.5309,20,9.9056
3.1,0.000515,0.048436,6.3998e-05,0,0,0,0
5.59,0.000752,0.17742,-3.6001e-05,0,0,0,0
8.1,0.001031,0.26258,-6e-06,0,0,0,0
10.59,0.001121,0.35357,-4.2001e-05,0,0,0,0
13.09,0.001771,0.446,3.7999e-05,0,0,0,0
15.6,0.002086,0.53485,0.00019198,0,0,0,0
18.09,0.002258,0.62715,0.00024797,0,0,0,0
20.59,0.002347,0.72442,6.2998e-05,0,0,0,0
23.09,0.002877,0.82429,5.9998e-05,0,0,0,0
25.59,0.003933,0.92428,0.00038693,0,0,0,0
28.09,0.004161,1.0247,0.00027496,0,0,0,0
30.59,0.004135,1.1264,0.00026197,0,0,0,0
33.09,0.004565,1.2291,7.8997e-05,0,0,0,0
35.59,0.005628,1.3326,8.2997e-05,0,0,0,0
38.09,0.006138,1.4371,0.00036393,0,0,0,0
40.59,0.005714,1.5401,0.00032395,0,0,0,0
43.09,0.006045,1.6419,0.00024197,0,0,0,0
45.59,0.008028,1.7431,0.0004369,0,0,0,0
48.09,0.008227,1.8444,0.00028796,0,0,0,0
50.59,0.00782,1.9457,0.00030495,0,0,0,0
53.09,0.00784,2.0469,0.00030095,0,0,0,0
55.59,0.009263,2.1476,0.00017498,0,0,0,0
58.09,0.010485,2.2489,0.00029096,0,0,0,0
60.59,0.0098,2.3446,0.00040392,0,0,0,0
63.09,0.009912,2.4454,0.00014199,0,0,0,0
65.59,0.011286,2.5457,0.00014199,0,0,0,0
68.09,0.012643,2.6467,0.0004499,0,0,0,0
70.59,0.01216,2.7466,0.00047289,0,0,0,0
73.09,0.011832,2.8461,0.00034394,0,0,0,0
75.59,0.013007,2.9471,5.2999e-05,0,0,0,0
78.09,0.014646,3.0469,0.00034394,0,0,0,0
80.59,0.014434,3.1456,0.00053586,0,0,0,0
83.09,0.013885,3.2471,0.0004469,0,0,0,0
85.59,0.015156,3.3457,0.00030095,0,0,0,0
88.09,0.017222,3.4446,0.00046689,0,0,0,0
90.59,0.01701,3.5436,0.00081467,0,0,0,0
93.09,0.016354,3.6414,0.00058883,0,0,0,0
95.59,0.017573,3.7383,0.00065878,0,0,0,0
98.09,0.019463,3.8366,0.00097253,0,0,0,0
100.59,0.019976,3.9339,0.0011284,0,0,0,0
103.09,0.019377,4.0314,0.0007807,0,0,0,0
105.59,0.020327,4.1249,0.0007707,0,0,0,0
108.09,0.022191,4.2234,0.0010954,0,0,0,0
110.59,0.022963,4.3204,0.0011583,0,0,0,0
113.09,0.022479,4.418,0.00099251,0,0,0,0
115.59,0.023439,4.5149,0.00076071,0,0,0,0
118.09,0.025128,4.6104,0.00072774,0,0,0,0
120.59,0.026187,4.7054,0.00099251,0,0,0,0
123.09,0.026551,4.8003,0.0010584,0,0,0,0
125.59,0.027412,4.8939,0.00086063,0,0,0,0
128.09,0.028869,4.9864,0.0010255,0,0,0,0
130.59,0.03016,5.0807,0.0012572,0,0,0,0
133.09,0.030756,5.1737,0.0014889,0,0,0,0
135.59,0.032245,5.2639,0.0013231,0,0,0,0
138.09,0.03357,5.3574,0.001389,0,0,0,0
140.59,0.035126,5.4456,0.0018523,0,0,0,0
143.09,0.036483,5.5393,0.0019521,0,0,0,0
145.59,0.039132,5.6277,0.0017535,0,0,0,0
148.09,0.040556,5.7211,0.0017535,0,0,0,0
150.59,0.04188,5.8089,0.0024799,0,0,0,0
153.09,0.044529,5.8969,0.0026126,0,0,0,0
155.59,0.048038,5.983,0.0024141,0,0,0,0
158.09,0.050124,6.0677,0.0026116,0,0,0,0
160.59,0.05158,6.1527,0.0032726,0,0,0,0
163.09,0.055321,6.232,0.0038336,0,0,0,0
165.59,0.059426,6.3126,0.0036683,0,0,0,0
168.09,0.06234,6.3919,0.0040319,0,0,0,0
170.59,0.065882,6.471,0.0048552,0,0,0,0
173.09,0.070087,6.5481,0.005646,0,0,0,0
175.59,0.073497,6.6219,0.0051527,0,0,0,0
178.09,0.077801,6.6971,0.0054163,0,0,0,0
180.59,0.083694,6.7671,0.0066995,0,0,0,0
183.09,0.088263,6.8403,0.0075544,0,0,0,0
185.59,0.091574,6.9096,0.0071275,0,0,0,0
188.09,0.097468,6.9799,0.0071275,0,0,0,0
190.59,0.10233,7.0477,0.0082439,0,0,0,0
193.09,0.10773,7.1149,0.0093927,0,0,0,0
195.59,0.11432,7.1813,0.0089667,0,0,0,0
198.09,0.11988,7.2457,0.0090331,0,0,0,0
200.59,0.12488,7.3117,0.010442,0,0,0,0
203.09,0.1314,7.3749,0.011393,0,0,0,0
205.59,0.13723,7.4371,0.011457,0,0,0,0
208.09,0.14296,7.497,0.011097,0,0,0,0
210.59,0.15077,7.5574,0.012111,0,0,0,0
213.09,0.15716,7.6167,0.013616,0,0,0,0
215.59,0.16335,7.6756,0.013583,0,0,0,0
218.09,0.17077,7.7343,0.013258,0,0,0,0
220.59,0.17706,7.7901,0.014367,0,0,0,0
223.09,0.18358,7.8466,0.015674,0,0,0,0
225.59,0.19235,7.9004,0.015902,0,0,0,0
228.09,0.19951,7.9564,0.015772,0,0,0,0
230.59,0.20709,8.0086,0.016782,0,0,0,0
233.09,0.21546,8.0623,0.017953,0,0,0,0
235.59,0.22212,8.1137,0.018181,0,0,0,0
238.09,0.2303,8.1643,0.01844,0,0,0,0
240.59,0.23841,8.2139,0.019221,0,0,0,0
243.09,0.24579,8.2627,0.020356,0,0,0,0
245.59,0.25533,8.312,0.020778,0,0,0,0
248.09,0.26331,8.3589,0.021037,0,0,0,0
250.59,0.27158,8.4057,0.021814,0,0,0,0
253.09,0.28105,8.4514,0.022752,0,0,0,0
255.59,0.2889,8.4967,0.023627,0,0,0,0
258.09,0.29757,8.5417,0.024047,0,0,0,0
260.59,0.30668,8.5866,0.02466,0,0,0,0
263.09,0.31495,8.6304,0.025629,0,0,0,0
265.59,0.32535,8.6736,0.026339,0,0,0,0
268.09,0.33409,8.7153,0.027275,0,0,0,0
270.59,0.34373,8.7566,0.02779,0,0,0,0
273.09,0.35419,8.7971,0.028755,0,0,0,0
275.59,0.36283,8.8367,0.029624,0,0,0,0
278.09,0.37336,8.8766,0.030523,0,0,0,0
280.59,0.3823,8.9161,0.031423,0,0,0,0
283.09,0.39183,8.9546,0.032128,0,0,0,0
285.59,0.40253,8.9914,0.033154,0,0,0,0
288.09,0.4117,9.0294,0.033826,0,0,0,0
290.59,0.42296,9.0654,0.034852,0,0,0,0
293.09,0.43289,9.1021,0.035651,0,0,0,0
295.59,0.44329,9.1361,0.036578,0,0,0,0
298.09,0.45474,9.173,0.037629,0,0,0,0
300.59,0.46428,9.2066,0.038491,0,0,0,0
303.09,0.47626,9.2406,0.039448,0,0,0,0
305.59,0.48616,9.2739,0.040591,0,0,0,0
308.09,0.49715,9.3066,0.04129,0,0,0,0
310.59,0.50795,9.3386,0.042243,0,0,0,0
313.09,0.51791,9.3703,0.043606,0,0,0,0
315.59,0.53013,9.4014,0.044494,0,0,0,0
318.09,0.54033,9.4309,0.045157,0,0,0,0
320.59,0.55244,9.46,0.046296,0,0,0,0
323.09,0.5637,9.4901,0.047655,0,0,0,0
325.59,0.57519,9.5194,0.048791,0,0,0,0
328.09,0.58714,9.5479,0.049547,0,0,0,0
330.59,0.59794,9.5757,0.05068,0,0,0,0
333.09,0.61085,9.6037,0.052127,0,0,0,0
335.59,0.62141,9.6297,0.053257,0,0,0,0
338.09,0.63373,9.6569,0.054011,0,0,0,0
340.59,0.64512,9.6831,0.055421,0,0,0,0
343.09,0.65701,9.7093,0.056892,0,0,0,0
345.59,0.66942,9.7334,0.058175,0,0,0,0
348.09,0.68045,9.758,0.059267,0,0,0,0
350.59,0.69379,9.7821,0.060765,0,0,0,0
353.09,0.70495,9.8053,0.062227,0,0,0,0
355.59,0.71803,9.8279,0.063347,0,0,0,0
358.09,0.73005,9.8503,0.064808,0,0,0,0
360.59,0.74249,9.8723,0.066235,0,0,0,0
363.09,0.75527,9.8936,0.067444,0,0,0,0
365.59,0.76673,9.9144,0.069081,0,0,0,0
368.09,0.78027,9.9349,0.070565,0,0,0,0
370.59,0.79186,9.9551,0.07183,0,0,0,0
373.09,0.8053,9.9756,0.073339,0,0,0,0
375.59,0.81719,9.995,0.075184,0,0,0,0
378.09,0.82983,10.014,0.07635,0,0,0,0
380.59,0.84248,10.031,0.077945,0,0,0,0
383.09,0.85467,10.05,0.079902,0,0,0,0
385.59,0.86824,10.067,0.081279,0,0,0,0
388.09,0.88023,10.085,0.082895,0,0,0,0
390.59,0.89456,10.101,0.084508,0,0,0,0
393.09,0.90661,10.118,0.086422,0,0,0,0
395.59,0.92075,10.134,0.088334,0,0,0,0
398.09,0.9335,10.149,0.089486,0,0,0,0
400.59,0.94741,10.165,0.091451,0,0,0,0
403.09,0.96045,10.179,0.093414,0,0,0,0
405.59,0.97396,10.194,0.095313,0,0,0,0
408.09,0.98823,10.208,0.096846,0,0,0,0
410.59,1.0012,10.222,0.098828,0,0,0,0
413.09,1.016,10.235,0.10096,0,0,0,0
415.59,1.0289,10.248,0.10311,0,0,0,0
418.09,1.0445,10.262,0.10535,0,0,0,0
420.59,1.058,10.274,0.10731,0,0,0,0
423.09,1.073,10.285,0.10939,0,0,0,0
425.59,1.0866,10.296,0.11185,0,0,0,0
428.09,1.1016,10.307,0.11404,0,0,0,0
430.59,1.1156,10.317,0.11684,0,0,0,0
433.09,1.1304,10.326,0.11911,0,0,0,0
435.59,1.1447,10.335,0.12131,0,0,0,0
438.09,1.1596,10.344,0.1241,0,0,0,0
440.59,1.1744,10.352,0.12661,0,0,0,0
443.09,1.189,10.36,0.1292,0,0,0,0
445.59,1.2043,10.367,0.13211,0,0,0,0
448.09,1.2186,10.374,0.135,0,0,0,0
450.59,1.2344,10.38,0.13772,0,0,0,0
453.09,1.2489,10.387,0.14077,0,0,0,0
455.59,1.2648,10.392,0.14384,0,0,0,0
458.09,1.2794,10.397,0.14674,0,0,0,0
460.59,1.2961,10.401,0.15005,0,0,0,0
463.09,1.3108,10.404,0.1534,0,0,0,0
465.59,1.3274,10.407,0.15658,0,0,0,0
468.09,1.3423,10.409,0.1602,0,0,0,0
470.59,1.3591,10.411,0.1638,0,0,0,0
473.09,1.3741,10.412,0.16731,0,0,0,0
475.59,1.3914,10.412,0.17088,0,0,0,0
478.09,1.4064,10.412,0.17481,0,0,0,0
480.59,1.4233,10.411,0.17889,0,0,0,0
483.09,1.4389,10.41,0.1832,0,0,0,0
485.59,1.4563,10.408,0.18746,0,0,0,0
488.09,1.4718,10.404,0.19149,0,0,0,0
490.59,1.4895,10.4,0.19607,0,0,0,0
493.09,1.5052,10.396,0.20061,0,0,0,0
495.59,1.5228,10.391,0.2055,0,0,0,0
498.09,1.5389,10.384,0.21039,0,0,0,0
500.59,1.5568,10.377,0.21532,0,0,0,0
503.09,1.5728,10.368,0.22019,0,0,0,0
505.59,1.591,10.359,0.2256,0,0,0,0
508.09,1.6068,10.349,0.23095,0,0,0,0
510.59,1.6249,10.338,0.23614,0,0,0,0
513.09,1.6408,10.327,0.24166,0,0,0,0
515.59,1.6591,10.314,0.2475,0,0,0,0
518.09,1.6754,10.301,0.25376,0,0,0,0
520.59,1.6938,10.287,0.25991,0,0,0,0
523.09,1.7105,10.271,0.26566,0,0,0,0
525.59,1.7288,10.254,0.27222,0,0,0,0
528.09,1.7453,10.236,0.27911,0,0,0,0
530.59,1.7646,10.217,0.28579,0,0,0,0
533.09,1.7812,10.196,0.29274,0,0,0,0
535.59,1.7999,10.175,0.29958,0,0,0,0
538.09,1.8172,10.152,0.30691,0,0,0,0
540.59,1.8359,10.127,0.31422,0,0,0,0
543.09,1.8537,10.101,0.32195,0,0,0,0
545.59,1.8725,10.073,0.32936,0,0,0,0
548.09,1.891,10.044,0.33731,0,0,0,0
550.59,1.909,10.012,0.34501,0,0,0,0
553.09,1.928,9.9796,0.35267,0,0,0,0
555.59,1.9459,9.9444,0.36067,0,0,0,0
558.09,1.9654,9.9074,0.36851,0,0,0,0
560.59,1.9834,9.8679,0.37727,0,0,0,0
563.09,2.003,9.8263,0.38599,0,0,0,0
565.59,2.0215,9.7807,0.39518,0,0,0,0
568.09,2.0417,9.7337,0.40413,0,0,0,0
570.59,2.0604,9.6827,0.41368,0,0,0,0
573.09,2.0811,9.6269,0.42335,0,0,0,0
575.59,2.1002,9.5677,0.43371,0,0,0,0
578.09,2.1205,9.5053,0.44451,0,0,0,0
580.59,2.141,9.4376,0.45412,0,0,0,0
583.09,2.1614,9.3629,0.46491,0,0,0,0
585.59,2.1829,9.2836,0.47585,0,0,0,0
588.09,2.2035,9.1984,0.48755,0,0,0,0
590.59,2.2267,9.1016,0.50048,0,0,0,0
593.09,2.2493,8.9966,0.5138,0,0,0,0
595.59,2.2734,8.8746,-Inf,0,0,0,0
596.59,2.2864,8.8178,-Inf,0,0,0,0

File: NT6_45_1.csv
Time[s],Displacement[mm],Force[kN],AxStrain_1,AxStrain_2,Thickness[mm],OuterWidth[mm],InnerWidth[mm]
0.59,0,-0.01946,0,0,1.5281,20,9.8794
3.09,0.00059,0.053137,-0.00026103,0,0,0,0
5.59,0.000669,0.19329,3.1999e-05,0,0,0,0
8.09,0.00067,0.27843,0.00018798,0,0,0,0
10.59,0.000824,0.37415,0.00021998,0,0,0,0
13.09,0.001638,0.464,-6.7002e-05,0,0,0,0
15.59,0.001924,0.55656,0.00016599,0,0,0,0
18.09,0.002108,0.65043,0.00021298,0,0,0,0
20.59,0.002268,0.75085,0.00014099,0,0,0,0
23.09,0.002607,0.84958,0.00022697,0,0,0,0
25.59,0.003559,0.95057,0.00012199,0,0,0,0
28.09,0.003546,1.054,-0.00014601,0,0,0,0
30.59,0.00355,1.1589,3.4999e-05,0,0,0,0
33.09,0.003861,1.263,0.00025597,0,0,0,0
35.59,0.005122,1.3649,8.1997e-05,0,0,0,0
38.09,0.005156,1.4697,-3.7001e-05,0,0,0,0
40.59,0.005169,1.5724,0.00012699,0,0,0,0
43.09,0.005634,1.6794,0.00035794,0,0,0,0
45.59,0.006876,1.7827,0.00021898,0,0,0,0
48.09,0.007073,1.8826,2.7e-05,0,0,0,0
50.59,0.006337,1.9829,0.00019998,0,0,0,0
53.09,0.006982,2.0821,0.00019898,0,0,0,0
55.59,0.008508,2.1827,0.00030395,0,0,0,0
58.09,0.009307,2.2839,3.1e-05,0,0,0,0
60.59,0.0087,2.387,1.1e-05,0,0,0,0
63.09,0.008965,2.4874,0.00010599,0,0,0,0
65.59,0.010303,2.5889,0.00021198,0,0,0,0
68.09,0.01136,2.6883,3e-06,0,0,0,0
70.59,0.010722,2.7891,-0.00010901,0,0,0,0
73.09,0.010913,2.8903,0.00012599,0,0,0,0
75.59,0.012368,2.9931,0.00023497,0,0,0,0
78.09,0.013597,3.0937,0.00037993,0,0,0,0
80.59,0.012934,3.1919,0.00011599,0,0,0,0
83.09,0.012938,3.2934,0.00030295,0,0,0,0
85.59,0.014281,3.3911,0.00067577,0,0,0,0
88.09,0.015922,3.4939,0.00049988,0,0,0,0
90.59,0.01515,3.5914,0.00028796,0,0,0,0
93.09,0.014949,3.6919,0.00038992,0,0,0,0
95.59,0.016597,3.789,0.00076771,0,0,0,0
98.09,0.018212,3.8879,0.00092557,0,0,0,0
100.59,0.017605,3.9849,0.00049988,0,0,0,0
103.09,0.017414,4.0829,0.00058983,0,0,0,0
105.59,0.019088,4.183,0.00087761,0,0,0,0
108.09,0.020413,4.2801,0.00081767,0,0,0,0
110.59,0.020587,4.3789,0.00069876,0,0,0,0
113.09,0.020012,4.4753,0.00079668,0,0,0,0
115.59,0.021436,4.5716,0.00086463,0,0,0,0
118.09,0.022992,4.6674,0.00083665,0,0,0,0
120.59,0.023325,4.7654,0.00070375,0,0,0,0
123.09,0.023058,4.8614,0.00080568,0,0,0,0
125.59,0.02455,4.9539,0.00093157,0,0,0,0
128.09,0.026073,5.0511,0.0011653,0,0,0,0
130.59,0.026769,5.1429,0.00096653,0,0,0,0
133.09,0.0271,5.2396,0.0010045,0,0,0,0
135.59,0.028361,5.3314,0.0010974,0,0,0,0
138.09,0.030117,5.4271,0.0013401,0,0,0,0
140.59,0.031145,5.5183,0.0013771,0,0,0,0
143.09,0.031942,5.6094,0.0012412,0,0,0,0
145.59,0.033999,5.7011,0.001446,0,0,0,0
148.09,0.035492,5.7916,0.0018772,0,0,0,0
150.59,0.036986,5.8833,0.0021736,0,0,0,0
153.09,0.039178,5.9721,0.0017495,0,0,0,0
155.59,0.041899,6.0611,0.0021397,0,0,0,0
158.09,0.043198,6.1477,0.0026804,0,0,0,0
160.59,0.045092,6.2329,0.0032128,0,0,0,0
163.09,0.048643,6.3169,0.0030414,0,0,0,0
165.59,0.051928,6.402,0.0030773,0,0,0,0
168.09,0.053984,6.4851,0.0038705,0,0,0,0
170.59,0.056736,6.5639,0.0045656,0,0,0,0
173.09,0.06131,6.6451,0.0045685,0,0,0,0
175.59,0.064688,6.7209,0.0045158,0,0,0,0
178.09,0.068135,6.799,0.0052333,0,0,0,0
180.59,0.073406,6.873,0.006621,0,0,0,0
183.09,0.076952,6.9469,0.006161,0,0,0,0
185.59,0.0804,7.0201,0.0062355,0,0,0,0
188.09,0.086133,7.0919,0.0071265,0,0,0,0
190.59,0.091836,7.1624,0.0083758,0,0,0,0
193.09,0.096244,7.2319,0.0085474,0,0,0,0
195.59,0.10158,7.2981,0.0080247,0,0,0,0
198.09,0.10712,7.3674,0.0089142,0,0,0,0
200.59,0.1117,7.4323,0.010333,0,0,0,0
203.09,0.11813,7.4983,0.010759,0,0,0,0
205.59,0.12459,7.5594,0.010255,0,0,0,0
208.09,0.1301,7.6216,0.011146,0,0,0,0
210.59,0.13653,7.6826,0.012746,0,0,0,0
213.09,0.14286,7.7427,0.01331,0,0,0,0
215.59,0.14821,7.8044,0.012726,0,0,0,0
218.09,0.15566,7.8636,0.013323,0,0,0,0
220.59,0.16292,7.9221,0.014953,0,0,0,0
223.09,0.16938,7.9784,0.015862,0,0,0,0
225.59,0.1776,8.0341,0.015277,0,0,0,0
228.09,0.18459,8.0893,0.015805,0,0,0,0
230.59,0.19106,8.1446,0.017293,0,0,0,0
233.09,0.19931,8.1984,0.018295,0,0,0,0
235.59,0.2062,8.2511,0.018011,0,0,0,0
238.09,0.21415,8.302,0.01818,0,0,0,0
240.59,0.22317,8.3521,0.019698,0,0,0,0
243.09,0.23069,8.4031,0.020803,0,0,0,0
245.59,0.2392,8.4519,0.020972,0,0,0,0
248.09,0.24755,8.5009,0.02149,0,0,0,0
250.59,0.25478,8.5476,0.022133,0,0,0,0
253.09,0.26403,8.5943,0.023594,0,0,0,0
255.59,0.27205,8.6406,0.023984,0,0,0,0
258.09,0.2805,8.6859,0.024343,0,0,0,0
260.59,0.29074,8.732,0.025378,0,0,0,0
263.09,0.29893,8.7766,0.026252,0,0,0,0
265.59,0.30864,8.8204,0.027222,0,0,0,0
268.09,0.31832,8.8631,0.027839,0,0,0,0
270.59,0.32687,8.9044,0.028361,0,0,0,0
273.09,0.33681,8.9457,0.029648,0,0,0,0
275.59,0.34549,8.9874,0.030525,0,0,0,0
278.09,0.35573,9.0284,0.031333,0,0,0,0
280.59,0.36594,9.0674,0.031886,0,0,0,0
283.09,0.37498,9.1066,0.032985,0,0,0,0
285.59,0.38631,9.1437,0.034069,0,0,0,0
288.09,0.39589,9.1819,0.034811,0,0,0,0
290.59,0.40655,9.2181,0.035911,0,0,0,0
293.09,0.41706,9.2556,0.036887,0,0,0,0
295.59,0.4266,9.2903,0.037814,0,0,0,0
298.09,0.43806,9.3256,0.038678,0,0,0,0
300.59,0.44711,9.3599,0.039673,0,0,0,0
303.09,0.45837,9.3946,0.040919,0,0,0,0
305.59,0.46914,9.4277,0.0419,0,0,0,0
308.09,0.47978,9.4616,0.042833,0,0,0,0
310.59,0.4919,9.4936,0.043841,0,0,0,0
313.09,0.50214,9.5253,0.045231,0,0,0,0
315.59,0.5143,9.5564,0.046342,0,0,0,0
318.09,0.52487,9.5876,0.046965,0,0,0,0
320.59,0.53644,9.6184,0.0481,0,0,0,0
323.09,0.5481,9.6471,0.049704,0,0,0,0
325.59,0.55847,9.6764,0.050677,0,0,0,0
328.09,0.5708,9.7056,0.05134,0,0,0,0
330.59,0.5813,9.7327,0.052623,0,0,0,0
333.09,0.59379,9.7616,0.054026,0,0,0,0
335.59,0.60509,9.7884,0.055347,0,0,0,0
338.09,0.61735,9.8166,0.056503,0,0,0,0
340.59,0.62991,9.8421,0.057565,0,0,0,0
343.09,0.64137,9.8686,0.058854,0,0,0,0
345.59,0.65475,9.8937,0.060223,0,0,0,0
348.09,0.66618,9.9186,0.061709,0,0,0,0
350.59,0.67963,9.9431,0.063335,0,0,0,0
353.09,0.69143,9.9673,0.064303,0,0,0,0
355.59,0.70428,9.9907,0.065817,0,0,0,0
358.09,0.71703,10.013,0.06734,0,0,0,0
360.59,0.72906,10.036,0.068858,0,0,0,0
363.09,0.74244,10.058,0.070169,0,0,0,0
365.59,0.75423,10.079,0.071605,0,0,0,0
368.09,0.76795,10.101,0.073176,0,0,0,0
370.59,0.77987,10.122,0.074782,0,0,0,0
373.09,0.79372,10.142,0.076417,0,0,0,0
375.59,0.80641,10.162,0.078105,0,0,0,0
378.09,0.81995,10.181,0.07973,0,0,0,0
380.59,0.83324,10.2,0.081173,0,0,0,0
383.09,0.84603,10.219,0.083094,0,0,0,0
385.59,0.86044,10.236,0.084898,0,0,0,0
388.09,0.87322,10.254,0.086488,0,0,0,0
390.59,0.88797,10.271,0.088368,0,0,0,0
393.09,0.90092,10.288,0.090145,0,0,0,0
395.59,0.9158,10.304,0.092088,0,0,0,0
398.09,0.92901,10.32,0.093877,0,0,0,0
400.59,0.94386,10.335,0.095935,0,0,0,0
403.09,0.95766,10.351,0.098039,0,0,0,0
405.59,0.97221,10.365,0.10006,0,0,0,0
408.09,0.98662,10.378,0.10188,0,0,0,0
410.59,1.0003,10.392,0.10413,0,0,0,0
413.09,1.0153,10.405,0.10682,0,0,0,0
415.59,1.0293,10.417,0.10902,0,0,0,0
418.09,1.0446,10.429,0.11087,0,0,0,0
420.59,1.0582,10.441,0.11309,0,0,0,0
423.09,1.0733,10.452,0.11589,0,0,0,0
425.59,1.0874,10.462,0.11843,0,0,0,0
428.09,1.1029,10.472,0.12076,0,0,0,0
430.59,1.1169,10.481,0.12325,0,0,0,0
433.09,1.1325,10.49,0.12577,0,0,0,0
435.59,1.1465,10.498,0.12886,0,0,0,0
438.09,1.1623,10.506,0.13165,0,0,0,0
440.59,1.1764,10.513,0.13431,0,0,0,0
443.09,1.1923,10.52,0.13743,0,0,0,0
445.59,1.2071,10.526,0.1402,0,0,0,0
448.09,1.2224,10.532,0.14282,0,0,0,0
450.59,1.2381,10.537,0.14583,0,0,0,0
453.09,1.2533,10.541,0.14889,0,0,0,0
455.59,1.2693,10.545,0.15225,0,0,0,0
458.09,1.2848,10.549,0.15612,0,0,0,0
460.59,1.3012,10.551,0.15943,0,0,0,0
463.09,1.3163,10.553,0.1624,0,0,0,0
465.59,1.3331,10.554,0.16644,0,0,0,0
468.09,1.3483,10.555,0.17029,0,0,0,0
470.59,1.3651,10.555,0.17394,0,0,0,0
473.09,1.3806,10.554,0.17835,0,0,0,0
475.59,1.3975,10.552,0.1822,0,0,0,0
478.09,1.4134,10.55,0.18607,0,0,0,0
480.59,1.4304,10.547,0.19065,0,0,0,0
483.09,1.4465,10.543,0.19488,0,0,0,0
485.59,1.4639,10.538,0.19937,0,0,0,0
488.09,1.48,10.532,0.20438,0,0,0,0
490.59,1.4975,10.526,0.20924,0,0,0,0
493.09,1.5139,10.518,0.21457,0,0,0,0
495.59,1.5316,10.509,0.21983,0,0,0,0
498.09,1.5483,10.5,0.22547,0,0,0,0
500.59,1.5658,10.489,0.23089,0,0,0,0
503.09,1.5826,10.477,0.23587,0,0,0,0
505.58,1.6,10.464,0.24182,0,0,0,0
508.09,1.6171,10.45,0.24776,0,0,0,0
510.58,1.6347,10.435,0.25387,0,0,0,0
513.09,1.6517,10.419,0.26015,0,0,0,0
515.59,1.6696,10.402,0.26604,0,0,0,0
518.09,1.6871,10.384,0.27302,0,0,0,0
520.59,1.7048,10.364,0.27961,0,0,0,0
523.09,1.7224,10.343,0.28652,0,0,0,0
525.59,1.7404,10.321,0.29394,0,0,0,0
528.09,1.7585,10.297,0.30086,0,0,0,0
530.59,1.776,10.271,0.30849,0,0,0,0
533.09,1.7951,10.245,0.31609,0,0,0,0
535.59,1.8126,10.215,0.3237,0,0,0,0
538.09,1.832,10.185,0.33135,0,0,0,0
540.59,1.8494,10.153,0.33958,0,0,0,0
543.09,1.8691,10.119,0.34781,0,0,0,0
545.59,1.8869,10.081,0.35622,0,0,0,0
548.09,1.9067,10.042,0.36458,0,0,0,0
550.59,1.9248,10.001,0.37348,0,0,0,0
553.09,1.9444,9.9569,0.38242,0,0,0,0
555.59,1.9631,9.9103,0.39181,0,0,0,0
558.09,1.9828,9.861,0.40069,0,0,0,0
560.59,2.0023,9.8073,0.40978,0,0,0,0
563.09,2.0219,9.7506,0.41961,0,0,0,0
565.59,2.0424,9.6884,0.42889,0,0,0,0
568.09,2.062,9.6246,0.43917,0,0,0,0
570.59,2.0833,9.5529,0.45054,0,0,0,0
573.09,2.103,9.4767,0.46074,0,0,0,0
575.59,2.1251,9.3939,0.47196,0,0,0,0
578.09,2.1467,9.3034,0.48332,0,0,0,0
580.59,2.1689,9.2033,0.49539,0,0,0,0
583.09,2.1929,9.0939,0.50735,0,0,0,0
585.59,2.2198,8.963,-Inf,0,0,0,0